{"_links":{"parentClass":{"href":"/mdr/sdtmig/3-3/classes/Findings","title":"Findings Observation Class","type":"Class"},"parentProduct":{"href":"/mdr/sdtmig/3-3","title":"Study Data Tabulation Model Implementation Guide: Human Clinical Trials Version 3.3 (Final)","type":"Implementation Guide"},"priorVersion":{"href":"/mdr/sdtmig/3-2/datasets/VS","title":"Vital Signs","type":"SDTM Dataset"},"self":{"href":"/mdr/sdtmig/3-3/datasets/VS","title":"Vital Signs","type":"SDTM Dataset"}},"datasetStructure":"One record per vital sign measurement per time point per visit per subject","datasetVariables":[{"_links":{"modelClassVariable":{"href":"/mdr/sdtm/1-7/classes/GeneralObservations/variables/STUDYID","title":"Study Identifier","type":"Class Variable"},"parentDataset":{"href":"/mdr/sdtmig/3-3/datasets/VS","title":"Vital Signs","type":"SDTM Dataset"},"parentProduct":{"href":"/mdr/sdtmig/3-3","title":"Study Data Tabulation Model Implementation Guide: Human Clinical Trials Version 3.3 (Final)","type":"Implementation Guide"},"priorVersion":{"href":"/mdr/sdtmig/3-2/datasets/VS/variables/STUDYID","title":"Study Identifier","type":"SDTM Dataset Variable"},"rootItem":{"href":"/mdr/root/sdtmig/datasets/VS/variables/STUDYID","title":"Version-agnostic anchor resource for SDTMIG variable VS.STUDYID","type":"Root Data Element"},"self":{"href":"/mdr/sdtmig/3-3/datasets/VS/variables/STUDYID","title":"Study Identifier","type":"SDTM Dataset Variable"}},"core":"Req","description":"Unique identifier for a study.","label":"Study Identifier","name":"STUDYID","ordinal":"1","role":"Identifier","simpleDatatype":"Char"},{"_links":{"modelClassVariable":{"href":"/mdr/sdtm/1-7/classes/GeneralObservations/variables/DOMAIN","title":"Domain Abbreviation","type":"Class Variable"},"parentDataset":{"href":"/mdr/sdtmig/3-3/datasets/VS","title":"Vital Signs","type":"SDTM Dataset"},"parentProduct":{"href":"/mdr/sdtmig/3-3","title":"Study Data Tabulation Model Implementation Guide: Human Clinical Trials Version 3.3 (Final)","type":"Implementation Guide"},"priorVersion":{"href":"/mdr/sdtmig/3-2/datasets/VS/variables/DOMAIN","title":"Domain Abbreviation","type":"SDTM Dataset Variable"},"rootItem":{"href":"/mdr/root/sdtmig/datasets/VS/variables/DOMAIN","title":"Version-agnostic anchor resource for SDTMIG variable VS.DOMAIN","type":"Root Data Element"},"self":{"href":"/mdr/sdtmig/3-3/datasets/VS/variables/DOMAIN","title":"Domain Abbreviation","type":"SDTM Dataset Variable"}},"core":"Req","description":"Two-character abbreviation for the domain.","label":"Domain Abbreviation","name":"DOMAIN","ordinal":"2","role":"Identifier","simpleDatatype":"Char","valueList":["VS"]},{"_links":{"modelClassVariable":{"href":"/mdr/sdtm/1-7/classes/GeneralObservations/variables/USUBJID","title":"Unique Subject Identifier","type":"Class Variable"},"parentDataset":{"href":"/mdr/sdtmig/3-3/datasets/VS","title":"Vital Signs","type":"SDTM Dataset"},"parentProduct":{"href":"/mdr/sdtmig/3-3","title":"Study Data Tabulation Model Implementation Guide: Human Clinical Trials Version 3.3 (Final)","type":"Implementation Guide"},"priorVersion":{"href":"/mdr/sdtmig/3-2/datasets/VS/variables/USUBJID","title":"Unique Subject Identifier","type":"SDTM Dataset Variable"},"rootItem":{"href":"/mdr/root/sdtmig/datasets/VS/variables/USUBJID","title":"Version-agnostic anchor resource for SDTMIG variable VS.USUBJID","type":"Root Data Element"},"self":{"href":"/mdr/sdtmig/3-3/datasets/VS/variables/USUBJID","title":"Unique Subject Identifier","type":"SDTM Dataset Variable"}},"core":"Req","description":"Identifier used to uniquely identify a subject across all studies for all applications or submissions involving the product.","label":"Unique Subject Identifier","name":"USUBJID","ordinal":"3","role":"Identifier","simpleDatatype":"Char"},{"_links":{"modelClassVariable":{"href":"/mdr/sdtm/1-7/classes/GeneralObservations/variables/--SEQ","title":"Sequence Number","type":"Class Variable"},"parentDataset":{"href":"/mdr/sdtmig/3-3/datasets/VS","title":"Vital Signs","type":"SDTM Dataset"},"parentProduct":{"href":"/mdr/sdtmig/3-3","title":"Study Data Tabulation Model Implementation Guide: Human Clinical Trials Version 3.3 (Final)","type":"Implementation Guide"},"priorVersion":{"href":"/mdr/sdtmig/3-2/datasets/VS/variables/VSSEQ","title":"Sequence Number","type":"SDTM Dataset Variable"},"rootItem":{"href":"/mdr/root/sdtmig/datasets/VS/variables/VSSEQ","title":"Version-agnostic anchor resource for SDTMIG variable VS.VSSEQ","type":"Root Data Element"},"self":{"href":"/mdr/sdtmig/3-3/datasets/VS/variables/VSSEQ","title":"Sequence Number","type":"SDTM Dataset Variable"}},"core":"Req","description":"Sequence number given to ensure uniqueness of subject records within a domain. May be any valid number.","label":"Sequence Number","name":"VSSEQ","ordinal":"4","role":"Identifier","simpleDatatype":"Num"},{"_links":{"modelClassVariable":{"href":"/mdr/sdtm/1-7/classes/GeneralObservations/variables/--GRPID","title":"Group ID","type":"Class Variable"},"parentDataset":{"href":"/mdr/sdtmig/3-3/datasets/VS","title":"Vital Signs","type":"SDTM Dataset"},"parentProduct":{"href":"/mdr/sdtmig/3-3","title":"Study Data Tabulation Model Implementation Guide: Human Clinical Trials Version 3.3 (Final)","type":"Implementation Guide"},"priorVersion":{"href":"/mdr/sdtmig/3-2/datasets/VS/variables/VSGRPID","title":"Group ID","type":"SDTM Dataset Variable"},"rootItem":{"href":"/mdr/root/sdtmig/datasets/VS/variables/VSGRPID","title":"Version-agnostic anchor resource for SDTMIG variable VS.VSGRPID","type":"Root Data Element"},"self":{"href":"/mdr/sdtmig/3-3/datasets/VS/variables/VSGRPID","title":"Group ID","type":"SDTM Dataset Variable"}},"core":"Perm","description":"Used to tie together a block of related records in a single domain for a subject.","label":"Group ID","name":"VSGRPID","ordinal":"5","role":"Identifier","simpleDatatype":"Char"},{"_links":{"modelClassVariable":{"href":"/mdr/sdtm/1-7/classes/GeneralObservations/variables/--SPID","title":"Sponsor-Defined Identifier","type":"Class Variable"},"parentDataset":{"href":"/mdr/sdtmig/3-3/datasets/VS","title":"Vital Signs","type":"SDTM Dataset"},"parentProduct":{"href":"/mdr/sdtmig/3-3","title":"Study Data Tabulation Model Implementation Guide: Human Clinical Trials Version 3.3 (Final)","type":"Implementation Guide"},"priorVersion":{"href":"/mdr/sdtmig/3-2/datasets/VS/variables/VSSPID","title":"Sponsor-Defined Identifier","type":"SDTM Dataset Variable"},"rootItem":{"href":"/mdr/root/sdtmig/datasets/VS/variables/VSSPID","title":"Version-agnostic anchor resource for SDTMIG variable VS.VSSPID","type":"Root Data Element"},"self":{"href":"/mdr/sdtmig/3-3/datasets/VS/variables/VSSPID","title":"Sponsor-Defined Identifier","type":"SDTM Dataset Variable"}},"core":"Perm","description":"Sponsor-defined reference number. Perhaps pre-printed on the CRF as an explicit line identifier or defined in the sponsor's operational database.","label":"Sponsor-Defined Identifier","name":"VSSPID","ordinal":"6","role":"Identifier","simpleDatatype":"Char"},{"_links":{"codelist":[{"href":"/mdr/root/ct/sdtmct/codelists/C66741","title":"Version-agnostic anchor resource for codelist C66741","type":"Root Value Domain"}],"modelClassVariable":{"href":"/mdr/sdtm/1-7/classes/Findings/variables/--TESTCD","title":"Short Name of Measurement, Test, or Exam","type":"Class Variable"},"parentDataset":{"href":"/mdr/sdtmig/3-3/datasets/VS","title":"Vital Signs","type":"SDTM Dataset"},"parentProduct":{"href":"/mdr/sdtmig/3-3","title":"Study Data Tabulation Model Implementation Guide: Human Clinical Trials Version 3.3 (Final)","type":"Implementation Guide"},"priorVersion":{"href":"/mdr/sdtmig/3-2/datasets/VS/variables/VSTESTCD","title":"Vital Signs Test Short Name","type":"SDTM Dataset Variable"},"rootItem":{"href":"/mdr/root/sdtmig/datasets/VS/variables/VSTESTCD","title":"Version-agnostic anchor resource for SDTMIG variable VS.VSTESTCD","type":"Root Data Element"},"self":{"href":"/mdr/sdtmig/3-3/datasets/VS/variables/VSTESTCD","title":"Vital Signs Test Short Name","type":"SDTM Dataset Variable"}},"core":"Req","description":"Short name of the measurement, test, or examination described in VSTEST. It can be used as a column name when converting a dataset from a vertical to a horizontal format. The value in VSTESTCD cannot be longer than 8 characters, nor can it start with a number (e.g., \"1TEST\" is not valid). VSTESTCD cannot contain characters other than letters, numbers, or underscores. Examples: \"SYSBP\", \"DIABP\", \"BMI\".","label":"Vital Signs Test Short Name","name":"VSTESTCD","ordinal":"7","role":"Topic","simpleDatatype":"Char"},{"_links":{"codelist":[{"href":"/mdr/root/ct/sdtmct/codelists/C67153","title":"Version-agnostic anchor resource for codelist C67153","type":"Root Value Domain"}],"modelClassVariable":{"href":"/mdr/sdtm/1-7/classes/Findings/variables/--TEST","title":"Name of Measurement, Test, or Exam","type":"Class Variable"},"parentDataset":{"href":"/mdr/sdtmig/3-3/datasets/VS","title":"Vital Signs","type":"SDTM Dataset"},"parentProduct":{"href":"/mdr/sdtmig/3-3","title":"Study Data Tabulation Model Implementation Guide: Human Clinical Trials Version 3.3 (Final)","type":"Implementation Guide"},"priorVersion":{"href":"/mdr/sdtmig/3-2/datasets/VS/variables/VSTEST","title":"Vital Signs Test Name","type":"SDTM Dataset Variable"},"rootItem":{"href":"/mdr/root/sdtmig/datasets/VS/variables/VSTEST","title":"Version-agnostic anchor resource for SDTMIG variable VS.VSTEST","type":"Root Data Element"},"self":{"href":"/mdr/sdtmig/3-3/datasets/VS/variables/VSTEST","title":"Vital Signs Test Name","type":"SDTM Dataset Variable"}},"core":"Req","description":"Verbatim name of the test or examination used to obtain the measurement or finding. The value in VSTEST cannot be longer than 40 characters. Examples: \"Systolic Blood Pressure\", \"Diastolic Blood Pressure\", \"Body Mass Index\".","label":"Vital Signs Test Name","name":"VSTEST","ordinal":"8","role":"Synonym Qualifier","simpleDatatype":"Char"},{"_links":{"modelClassVariable":{"href":"/mdr/sdtm/1-7/classes/Findings/variables/--CAT","title":"Category","type":"Class Variable"},"parentDataset":{"href":"/mdr/sdtmig/3-3/datasets/VS","title":"Vital Signs","type":"SDTM Dataset"},"parentProduct":{"href":"/mdr/sdtmig/3-3","title":"Study Data Tabulation Model Implementation Guide: Human Clinical Trials Version 3.3 (Final)","type":"Implementation Guide"},"priorVersion":{"href":"/mdr/sdtmig/3-2/datasets/VS/variables/VSCAT","title":"Category for Vital Signs","type":"SDTM Dataset Variable"},"rootItem":{"href":"/mdr/root/sdtmig/datasets/VS/variables/VSCAT","title":"Version-agnostic anchor resource for SDTMIG variable VS.VSCAT","type":"Root Data Element"},"self":{"href":"/mdr/sdtmig/3-3/datasets/VS/variables/VSCAT","title":"Category for Vital Signs","type":"SDTM Dataset Variable"}},"core":"Perm","description":"Used to define a category of related records.","label":"Category for Vital Signs","name":"VSCAT","ordinal":"9","role":"Grouping Qualifier","simpleDatatype":"Char"},{"_links":{"modelClassVariable":{"href":"/mdr/sdtm/1-7/classes/Findings/variables/--SCAT","title":"Subcategory","type":"Class Variable"},"parentDataset":{"href":"/mdr/sdtmig/3-3/datasets/VS","title":"Vital Signs","type":"SDTM Dataset"},"parentProduct":{"href":"/mdr/sdtmig/3-3","title":"Study Data Tabulation Model Implementation Guide: Human Clinical Trials Version 3.3 (Final)","type":"Implementation Guide"},"priorVersion":{"href":"/mdr/sdtmig/3-2/datasets/VS/variables/VSSCAT","title":"Subcategory for Vital Signs","type":"SDTM Dataset Variable"},"rootItem":{"href":"/mdr/root/sdtmig/datasets/VS/variables/VSSCAT","title":"Version-agnostic anchor resource for SDTMIG variable VS.VSSCAT","type":"Root Data Element"},"self":{"href":"/mdr/sdtmig/3-3/datasets/VS/variables/VSSCAT","title":"Subcategory for Vital Signs","type":"SDTM Dataset Variable"}},"core":"Perm","description":"A further categorization of a measurement or examination.","label":"Subcategory for Vital Signs","name":"VSSCAT","ordinal":"10","role":"Grouping Qualifier","simpleDatatype":"Char"},{"_links":{"codelist":[{"href":"/mdr/root/ct/sdtmct/codelists/C71148","title":"Version-agnostic anchor resource for codelist C71148","type":"Root Value Domain"}],"modelClassVariable":{"href":"/mdr/sdtm/1-7/classes/Findings/variables/--POS","title":"Position of Subject During Observation","type":"Class Variable"},"parentDataset":{"href":"/mdr/sdtmig/3-3/datasets/VS","title":"Vital Signs","type":"SDTM Dataset"},"parentProduct":{"href":"/mdr/sdtmig/3-3","title":"Study Data Tabulation Model Implementation Guide: Human Clinical Trials Version 3.3 (Final)","type":"Implementation Guide"},"priorVersion":{"href":"/mdr/sdtmig/3-2/datasets/VS/variables/VSPOS","title":"Vital Signs Position of Subject","type":"SDTM Dataset Variable"},"rootItem":{"href":"/mdr/root/sdtmig/datasets/VS/variables/VSPOS","title":"Version-agnostic anchor resource for SDTMIG variable VS.VSPOS","type":"Root Data Element"},"self":{"href":"/mdr/sdtmig/3-3/datasets/VS/variables/VSPOS","title":"Vital Signs Position of Subject","type":"SDTM Dataset Variable"}},"core":"Perm","description":"Position of the subject during a measurement or examination. Examples: \"SUPINE\", \"STANDING\", \"SITTING\".","label":"Vital Signs Position of Subject","name":"VSPOS","ordinal":"11","role":"Record Qualifier","simpleDatatype":"Char"},{"_links":{"modelClassVariable":{"href":"/mdr/sdtm/1-7/classes/Findings/variables/--ORRES","title":"Result or Finding in Original Units","type":"Class Variable"},"parentDataset":{"href":"/mdr/sdtmig/3-3/datasets/VS","title":"Vital Signs","type":"SDTM Dataset"},"parentProduct":{"href":"/mdr/sdtmig/3-3","title":"Study Data Tabulation Model Implementation Guide: Human Clinical Trials Version 3.3 (Final)","type":"Implementation Guide"},"priorVersion":{"href":"/mdr/sdtmig/3-2/datasets/VS/variables/VSORRES","title":"Result or Finding in Original Units","type":"SDTM Dataset Variable"},"rootItem":{"href":"/mdr/root/sdtmig/datasets/VS/variables/VSORRES","title":"Version-agnostic anchor resource for SDTMIG variable VS.VSORRES","type":"Root Data Element"},"self":{"href":"/mdr/sdtmig/3-3/datasets/VS/variables/VSORRES","title":"Result or Finding in Original Units","type":"SDTM Dataset Variable"}},"core":"Exp","description":"Result of the vital signs measurement as originally received or collected.","label":"Result or Finding in Original Units","name":"VSORRES","ordinal":"12","role":"Result Qualifier","simpleDatatype":"Char"},{"_links":{"codelist":[{"href":"/mdr/root/ct/sdtmct/codelists/C66770","title":"Version-agnostic anchor resource for codelist C66770","type":"Root Value Domain"}],"modelClassVariable":{"href":"/mdr/sdtm/1-7/classes/Findings/variables/--ORRESU","title":"Original Units","type":"Class Variable"},"parentDataset":{"href":"/mdr/sdtmig/3-3/datasets/VS","title":"Vital Signs","type":"SDTM Dataset"},"parentProduct":{"href":"/mdr/sdtmig/3-3","title":"Study Data Tabulation Model Implementation Guide: Human Clinical Trials Version 3.3 (Final)","type":"Implementation Guide"},"priorVersion":{"href":"/mdr/sdtmig/3-2/datasets/VS/variables/VSORRESU","title":"Original Units","type":"SDTM Dataset Variable"},"rootItem":{"href":"/mdr/root/sdtmig/datasets/VS/variables/VSORRESU","title":"Version-agnostic anchor resource for SDTMIG variable VS.VSORRESU","type":"Root Data Element"},"self":{"href":"/mdr/sdtmig/3-3/datasets/VS/variables/VSORRESU","title":"Original Units","type":"SDTM Dataset Variable"}},"core":"Exp","description":"Original units in which the data were collected. The unit for VSORRES. Examples: \"in\", \"LB\", \"beats/min\".","label":"Original Units","name":"VSORRESU","ordinal":"13","role":"Variable Qualifier","simpleDatatype":"Char"},{"_links":{"modelClassVariable":{"href":"/mdr/sdtm/1-7/classes/Findings/variables/--STRESC","title":"Result or Finding in Standard Format","type":"Class Variable"},"parentDataset":{"href":"/mdr/sdtmig/3-3/datasets/VS","title":"Vital Signs","type":"SDTM Dataset"},"parentProduct":{"href":"/mdr/sdtmig/3-3","title":"Study Data Tabulation Model Implementation Guide: Human Clinical Trials Version 3.3 (Final)","type":"Implementation Guide"},"priorVersion":{"href":"/mdr/sdtmig/3-2/datasets/VS/variables/VSSTRESC","title":"Character Result/Finding in Std Format","type":"SDTM Dataset Variable"},"rootItem":{"href":"/mdr/root/sdtmig/datasets/VS/variables/VSSTRESC","title":"Version-agnostic anchor resource for SDTMIG variable VS.VSSTRESC","type":"Root Data Element"},"self":{"href":"/mdr/sdtmig/3-3/datasets/VS/variables/VSSTRESC","title":"Character Result/Finding in Std Format","type":"SDTM Dataset Variable"}},"core":"Exp","description":"Contains the result value for all findings, copied or derived from VSORRES in a standard format or standard units. VSSTRESC should store all results or findings in character format; if results are numeric, they should also be stored in numeric format in VSSTRESN. For example, if a test has results \"NONE\", \"NEG\", and \"NEGATIVE\" in VSORRES, and these results effectively have the same meaning, they could be represented in standard format in VSSTRESC as \"NEGATIVE\".","label":"Character Result/Finding in Std Format","name":"VSSTRESC","ordinal":"14","role":"Result Qualifier","simpleDatatype":"Char"},{"_links":{"modelClassVariable":{"href":"/mdr/sdtm/1-7/classes/Findings/variables/--STRESN","title":"Numeric Result/Finding in Standard Units","type":"Class Variable"},"parentDataset":{"href":"/mdr/sdtmig/3-3/datasets/VS","title":"Vital Signs","type":"SDTM Dataset"},"parentProduct":{"href":"/mdr/sdtmig/3-3","title":"Study Data Tabulation Model Implementation Guide: Human Clinical Trials Version 3.3 (Final)","type":"Implementation Guide"},"priorVersion":{"href":"/mdr/sdtmig/3-2/datasets/VS/variables/VSSTRESN","title":"Numeric Result/Finding in Standard Units","type":"SDTM Dataset Variable"},"rootItem":{"href":"/mdr/root/sdtmig/datasets/VS/variables/VSSTRESN","title":"Version-agnostic anchor resource for SDTMIG variable VS.VSSTRESN","type":"Root Data Element"},"self":{"href":"/mdr/sdtmig/3-3/datasets/VS/variables/VSSTRESN","title":"Numeric Result/Finding in Standard Units","type":"SDTM Dataset Variable"}},"core":"Exp","description":"Used for continuous or numeric results or findings in standard format; copied in numeric format from VSSTRESC. VSSTRESN should store all numeric test results or findings.","label":"Numeric Result/Finding in Standard Units","name":"VSSTRESN","ordinal":"15","role":"Result Qualifier","simpleDatatype":"Num"},{"_links":{"codelist":[{"href":"/mdr/root/ct/sdtmct/codelists/C66770","title":"Version-agnostic anchor resource for codelist C66770","type":"Root Value Domain"}],"modelClassVariable":{"href":"/mdr/sdtm/1-7/classes/Findings/variables/--STRESU","title":"Standard Units","type":"Class Variable"},"parentDataset":{"href":"/mdr/sdtmig/3-3/datasets/VS","title":"Vital Signs","type":"SDTM Dataset"},"parentProduct":{"href":"/mdr/sdtmig/3-3","title":"Study Data Tabulation Model Implementation Guide: Human Clinical Trials Version 3.3 (Final)","type":"Implementation Guide"},"priorVersion":{"href":"/mdr/sdtmig/3-2/datasets/VS/variables/VSSTRESU","title":"Standard Units","type":"SDTM Dataset Variable"},"rootItem":{"href":"/mdr/root/sdtmig/datasets/VS/variables/VSSTRESU","title":"Version-agnostic anchor resource for SDTMIG variable VS.VSSTRESU","type":"Root Data Element"},"self":{"href":"/mdr/sdtmig/3-3/datasets/VS/variables/VSSTRESU","title":"Standard Units","type":"SDTM Dataset Variable"}},"core":"Exp","description":"Standardized unit used for VSSTRESC and VSSTRESN.","label":"Standard Units","name":"VSSTRESU","ordinal":"16","role":"Variable Qualifier","simpleDatatype":"Char"},{"_links":{"codelist":[{"href":"/mdr/root/ct/sdtmct/codelists/C66789","title":"Version-agnostic anchor resource for codelist C66789","type":"Root Value Domain"}],"modelClassVariable":{"href":"/mdr/sdtm/1-7/classes/Findings/variables/--STAT","title":"Completion Status","type":"Class Variable"},"parentDataset":{"href":"/mdr/sdtmig/3-3/datasets/VS","title":"Vital Signs","type":"SDTM Dataset"},"parentProduct":{"href":"/mdr/sdtmig/3-3","title":"Study Data Tabulation Model Implementation Guide: Human Clinical Trials Version 3.3 (Final)","type":"Implementation Guide"},"priorVersion":{"href":"/mdr/sdtmig/3-2/datasets/VS/variables/VSSTAT","title":"Completion Status","type":"SDTM Dataset Variable"},"rootItem":{"href":"/mdr/root/sdtmig/datasets/VS/variables/VSSTAT","title":"Version-agnostic anchor resource for SDTMIG variable VS.VSSTAT","type":"Root Data Element"},"self":{"href":"/mdr/sdtmig/3-3/datasets/VS/variables/VSSTAT","title":"Completion Status","type":"SDTM Dataset Variable"}},"core":"Perm","description":"Used to indicate that a vital sign measurement was not done. Should be null if a result exists in VSORRES.","label":"Completion Status","name":"VSSTAT","ordinal":"17","role":"Record Qualifier","simpleDatatype":"Char"},{"_links":{"modelClassVariable":{"href":"/mdr/sdtm/1-7/classes/Findings/variables/--REASND","title":"Reason Not Done","type":"Class Variable"},"parentDataset":{"href":"/mdr/sdtmig/3-3/datasets/VS","title":"Vital Signs","type":"SDTM Dataset"},"parentProduct":{"href":"/mdr/sdtmig/3-3","title":"Study Data Tabulation Model Implementation Guide: Human Clinical Trials Version 3.3 (Final)","type":"Implementation Guide"},"priorVersion":{"href":"/mdr/sdtmig/3-2/datasets/VS/variables/VSREASND","title":"Reason Not Performed","type":"SDTM Dataset Variable"},"rootItem":{"href":"/mdr/root/sdtmig/datasets/VS/variables/VSREASND","title":"Version-agnostic anchor resource for SDTMIG variable VS.VSREASND","type":"Root Data Element"},"self":{"href":"/mdr/sdtmig/3-3/datasets/VS/variables/VSREASND","title":"Reason Not Performed","type":"SDTM Dataset Variable"}},"core":"Perm","description":"Describes why a measurement or test was not performed. Examples: \"BROKEN EQUIPMENT\" or \"SUBJECT REFUSED\". Used in conjunction with VSSTAT when value is \"NOT DONE\".","label":"Reason Not Performed","name":"VSREASND","ordinal":"18","role":"Record Qualifier","simpleDatatype":"Char"},{"_links":{"codelist":[{"href":"/mdr/root/ct/sdtmct/codelists/C74456","title":"Version-agnostic anchor resource for codelist C74456","type":"Root Value Domain"}],"modelClassVariable":{"href":"/mdr/sdtm/1-7/classes/Findings/variables/--LOC","title":"Location Used for the Measurement","type":"Class Variable"},"parentDataset":{"href":"/mdr/sdtmig/3-3/datasets/VS","title":"Vital Signs","type":"SDTM Dataset"},"parentProduct":{"href":"/mdr/sdtmig/3-3","title":"Study Data Tabulation Model Implementation Guide: Human Clinical Trials Version 3.3 (Final)","type":"Implementation Guide"},"priorVersion":{"href":"/mdr/sdtmig/3-2/datasets/VS/variables/VSLOC","title":"Location of Vital Signs Measurement","type":"SDTM Dataset Variable"},"rootItem":{"href":"/mdr/root/sdtmig/datasets/VS/variables/VSLOC","title":"Version-agnostic anchor resource for SDTMIG variable VS.VSLOC","type":"Root Data Element"},"self":{"href":"/mdr/sdtmig/3-3/datasets/VS/variables/VSLOC","title":"Location of Vital Signs Measurement","type":"SDTM Dataset Variable"}},"core":"Perm","description":"Location relevant to the collection of Vital Signs measurement. Example: \"ARM\" for blood pressure.","label":"Location of Vital Signs Measurement","name":"VSLOC","ordinal":"19","role":"Record Qualifier","simpleDatatype":"Char"},{"_links":{"codelist":[{"href":"/mdr/root/ct/sdtmct/codelists/C99073","title":"Version-agnostic anchor resource for codelist C99073","type":"Root Value Domain"}],"modelClassVariable":{"href":"/mdr/sdtm/1-7/classes/Findings/variables/--LAT","title":"Laterality","type":"Class Variable"},"parentDataset":{"href":"/mdr/sdtmig/3-3/datasets/VS","title":"Vital Signs","type":"SDTM Dataset"},"parentProduct":{"href":"/mdr/sdtmig/3-3","title":"Study Data Tabulation Model Implementation Guide: Human Clinical Trials Version 3.3 (Final)","type":"Implementation Guide"},"priorVersion":{"href":"/mdr/sdtmig/3-2/datasets/VS/variables/VSLAT","title":"Laterality","type":"SDTM Dataset Variable"},"rootItem":{"href":"/mdr/root/sdtmig/datasets/VS/variables/VSLAT","title":"Version-agnostic anchor resource for SDTMIG variable VS.VSLAT","type":"Root Data Element"},"self":{"href":"/mdr/sdtmig/3-3/datasets/VS/variables/VSLAT","title":"Laterality","type":"SDTM Dataset Variable"}},"core":"Perm","description":"Qualifier for anatomical location or specimen further detailing laterality. Examples: \"RIGHT\", \"LEFT\", \"BILATERAL\".","label":"Laterality","name":"VSLAT","ordinal":"20","role":"Result Qualifier","simpleDatatype":"Char"},{"_links":{"codelist":[{"href":"/mdr/root/ct/sdtmct/codelists/C66742","title":"Version-agnostic anchor resource for codelist C66742","type":"Root Value Domain"}],"modelClassVariable":{"href":"/mdr/sdtm/1-7/classes/Findings/variables/--LOBXFL","title":"Last Observation Before Exposure Flag","type":"Class Variable"},"parentDataset":{"href":"/mdr/sdtmig/3-3/datasets/VS","title":"Vital Signs","type":"SDTM Dataset"},"parentProduct":{"href":"/mdr/sdtmig/3-3","title":"Study Data Tabulation Model Implementation Guide: Human Clinical Trials Version 3.3 (Final)","type":"Implementation Guide"},"rootItem":{"href":"/mdr/root/sdtmig/datasets/VS/variables/VSLOBXFL","title":"Version-agnostic anchor resource for SDTMIG variable VS.VSLOBXFL","type":"Root Data Element"},"self":{"href":"/mdr/sdtmig/3-3/datasets/VS/variables/VSLOBXFL","title":"Last Observation Before Exposure Flag","type":"SDTM Dataset Variable"}},"core":"Exp","description":"Operationally-derived indicator used to identify the last non-missing value prior to RFXSTDTC. Should be \"Y\" or null.","label":"Last Observation Before Exposure Flag","name":"VSLOBXFL","ordinal":"21","role":"Record Qualifier","simpleDatatype":"Char"},{"_links":{"codelist":[{"href":"/mdr/root/ct/sdtmct/codelists/C66742","title":"Version-agnostic anchor resource for codelist C66742","type":"Root Value Domain"}],"modelClassVariable":{"href":"/mdr/sdtm/1-7/classes/Findings/variables/--BLFL","title":"Baseline Flag","type":"Class Variable"},"parentDataset":{"href":"/mdr/sdtmig/3-3/datasets/VS","title":"Vital Signs","type":"SDTM Dataset"},"parentProduct":{"href":"/mdr/sdtmig/3-3","title":"Study Data Tabulation Model Implementation Guide: Human Clinical Trials Version 3.3 (Final)","type":"Implementation Guide"},"priorVersion":{"href":"/mdr/sdtmig/3-2/datasets/VS/variables/VSBLFL","title":"Baseline Flag","type":"SDTM Dataset Variable"},"rootItem":{"href":"/mdr/root/sdtmig/datasets/VS/variables/VSBLFL","title":"Version-agnostic anchor resource for SDTMIG variable VS.VSBLFL","type":"Root Data Element"},"self":{"href":"/mdr/sdtmig/3-3/datasets/VS/variables/VSBLFL","title":"Baseline Flag","type":"SDTM Dataset Variable"}},"core":"Perm","description":"Indicator used to identify a baseline value. Should be \"Y\" or null. Note that VSBLFL is retained for backward compatibility. The authoritative baseline for statistical analysis is in an ADaM dataset.","label":"Baseline Flag","name":"VSBLFL","ordinal":"22","role":"Record Qualifier","simpleDatatype":"Char"},{"_links":{"codelist":[{"href":"/mdr/root/ct/sdtmct/codelists/C66742","title":"Version-agnostic anchor resource for codelist C66742","type":"Root Value Domain"}],"modelClassVariable":{"href":"/mdr/sdtm/1-7/classes/Findings/variables/--DRVFL","title":"Derived Flag","type":"Class Variable"},"parentDataset":{"href":"/mdr/sdtmig/3-3/datasets/VS","title":"Vital Signs","type":"SDTM Dataset"},"parentProduct":{"href":"/mdr/sdtmig/3-3","title":"Study Data Tabulation Model Implementation Guide: Human Clinical Trials Version 3.3 (Final)","type":"Implementation Guide"},"priorVersion":{"href":"/mdr/sdtmig/3-2/datasets/VS/variables/VSDRVFL","title":"Derived Flag","type":"SDTM Dataset Variable"},"rootItem":{"href":"/mdr/root/sdtmig/datasets/VS/variables/VSDRVFL","title":"Version-agnostic anchor resource for SDTMIG variable VS.VSDRVFL","type":"Root Data Element"},"self":{"href":"/mdr/sdtmig/3-3/datasets/VS/variables/VSDRVFL","title":"Derived Flag","type":"SDTM Dataset Variable"}},"core":"Perm","description":"Used to indicate a derived record. The value should be \"Y\" or null. Records that represent the average of other records or that do not come from the CRF are examples of records that would be derived for the submission datasets. If VSDRVFL = \"Y,\" then VSORRES may be null, with VSSTRESC and (if numeric) VSSTRESN having the derived value.","label":"Derived Flag","name":"VSDRVFL","ordinal":"23","role":"Record Qualifier","simpleDatatype":"Char"},{"_links":{"modelClassVariable":{"href":"/mdr/sdtm/1-7/classes/GeneralObservations/variables/VISITNUM","title":"Visit Number","type":"Class Variable"},"parentDataset":{"href":"/mdr/sdtmig/3-3/datasets/VS","title":"Vital Signs","type":"SDTM Dataset"},"parentProduct":{"href":"/mdr/sdtmig/3-3","title":"Study Data Tabulation Model Implementation Guide: Human Clinical Trials Version 3.3 (Final)","type":"Implementation Guide"},"priorVersion":{"href":"/mdr/sdtmig/3-2/datasets/VS/variables/VISITNUM","title":"Visit Number","type":"SDTM Dataset Variable"},"rootItem":{"href":"/mdr/root/sdtmig/datasets/VS/variables/VISITNUM","title":"Version-agnostic anchor resource for SDTMIG variable VS.VISITNUM","type":"Root Data Element"},"self":{"href":"/mdr/sdtmig/3-3/datasets/VS/variables/VISITNUM","title":"Visit Number","type":"SDTM Dataset Variable"}},"core":"Exp","description":"1. Clinical encounter number.\n2. Numeric version of VISIT, used for sorting.","label":"Visit Number","name":"VISITNUM","ordinal":"24","role":"Timing","simpleDatatype":"Num"},{"_links":{"modelClassVariable":{"href":"/mdr/sdtm/1-7/classes/GeneralObservations/variables/VISIT","title":"Visit Name","type":"Class Variable"},"parentDataset":{"href":"/mdr/sdtmig/3-3/datasets/VS","title":"Vital Signs","type":"SDTM Dataset"},"parentProduct":{"href":"/mdr/sdtmig/3-3","title":"Study Data Tabulation Model Implementation Guide: Human Clinical Trials Version 3.3 (Final)","type":"Implementation Guide"},"priorVersion":{"href":"/mdr/sdtmig/3-2/datasets/VS/variables/VISIT","title":"Visit Name","type":"SDTM Dataset Variable"},"rootItem":{"href":"/mdr/root/sdtmig/datasets/VS/variables/VISIT","title":"Version-agnostic anchor resource for SDTMIG variable VS.VISIT","type":"Root Data Element"},"self":{"href":"/mdr/sdtmig/3-3/datasets/VS/variables/VISIT","title":"Visit Name","type":"SDTM Dataset Variable"}},"core":"Perm","description":"1. Protocol-defined description of clinical encounter.\n2. May be used in addition to VISITNUM and/or VISITDY.","label":"Visit Name","name":"VISIT","ordinal":"25","role":"Timing","simpleDatatype":"Char"},{"_links":{"modelClassVariable":{"href":"/mdr/sdtm/1-7/classes/GeneralObservations/variables/VISITDY","title":"Planned Study Day of Visit","type":"Class Variable"},"parentDataset":{"href":"/mdr/sdtmig/3-3/datasets/VS","title":"Vital Signs","type":"SDTM Dataset"},"parentProduct":{"href":"/mdr/sdtmig/3-3","title":"Study Data Tabulation Model Implementation Guide: Human Clinical Trials Version 3.3 (Final)","type":"Implementation Guide"},"priorVersion":{"href":"/mdr/sdtmig/3-2/datasets/VS/variables/VISITDY","title":"Planned Study Day of Visit","type":"SDTM Dataset Variable"},"rootItem":{"href":"/mdr/root/sdtmig/datasets/VS/variables/VISITDY","title":"Version-agnostic anchor resource for SDTMIG variable VS.VISITDY","type":"Root Data Element"},"self":{"href":"/mdr/sdtmig/3-3/datasets/VS/variables/VISITDY","title":"Planned Study Day of Visit","type":"SDTM Dataset Variable"}},"core":"Perm","description":"Planned study day of the visit based upon RFSTDTC in Demographics.","label":"Planned Study Day of Visit","name":"VISITDY","ordinal":"26","role":"Timing","simpleDatatype":"Num"},{"_links":{"modelClassVariable":{"href":"/mdr/sdtm/1-7/classes/GeneralObservations/variables/TAETORD","title":"Planned Order of Element Within Arm","type":"Class Variable"},"parentDataset":{"href":"/mdr/sdtmig/3-3/datasets/VS","title":"Vital Signs","type":"SDTM Dataset"},"parentProduct":{"href":"/mdr/sdtmig/3-3","title":"Study Data Tabulation Model Implementation Guide: Human Clinical Trials Version 3.3 (Final)","type":"Implementation Guide"},"rootItem":{"href":"/mdr/root/sdtmig/datasets/VS/variables/TAETORD","title":"Version-agnostic anchor resource for SDTMIG variable VS.TAETORD","type":"Root Data Element"},"self":{"href":"/mdr/sdtmig/3-3/datasets/VS/variables/TAETORD","title":"Planned Order of Element within Arm","type":"SDTM Dataset Variable"}},"core":"Perm","description":"Number that gives the planned order of the Element within the Arm.","label":"Planned Order of Element within Arm","name":"TAETORD","ordinal":"27","role":"Timing","simpleDatatype":"Num"},{"_links":{"codelist":[{"href":"/mdr/root/ct/sdtmct/codelists/C99079","title":"Version-agnostic anchor resource for codelist C99079","type":"Root Value Domain"}],"modelClassVariable":{"href":"/mdr/sdtm/1-7/classes/GeneralObservations/variables/EPOCH","title":"Epoch","type":"Class Variable"},"parentDataset":{"href":"/mdr/sdtmig/3-3/datasets/VS","title":"Vital Signs","type":"SDTM Dataset"},"parentProduct":{"href":"/mdr/sdtmig/3-3","title":"Study Data Tabulation Model Implementation Guide: Human Clinical Trials Version 3.3 (Final)","type":"Implementation Guide"},"rootItem":{"href":"/mdr/root/sdtmig/datasets/VS/variables/EPOCH","title":"Version-agnostic anchor resource for SDTMIG variable VS.EPOCH","type":"Root Data Element"},"self":{"href":"/mdr/sdtmig/3-3/datasets/VS/variables/EPOCH","title":"Epoch","type":"SDTM Dataset Variable"}},"core":"Perm","description":"Epoch associated with the start date/time at which the assessment was made.","label":"Epoch","name":"EPOCH","ordinal":"28","role":"Timing","simpleDatatype":"Char"},{"_links":{"modelClassVariable":{"href":"/mdr/sdtm/1-7/classes/GeneralObservations/variables/--DTC","title":"Date/Time of Collection","type":"Class Variable"},"parentDataset":{"href":"/mdr/sdtmig/3-3/datasets/VS","title":"Vital Signs","type":"SDTM Dataset"},"parentProduct":{"href":"/mdr/sdtmig/3-3","title":"Study Data Tabulation Model Implementation Guide: Human Clinical Trials Version 3.3 (Final)","type":"Implementation Guide"},"priorVersion":{"href":"/mdr/sdtmig/3-2/datasets/VS/variables/VSDTC","title":"Date/Time of Measurements","type":"SDTM Dataset Variable"},"rootItem":{"href":"/mdr/root/sdtmig/datasets/VS/variables/VSDTC","title":"Version-agnostic anchor resource for SDTMIG variable VS.VSDTC","type":"Root Data Element"},"self":{"href":"/mdr/sdtmig/3-3/datasets/VS/variables/VSDTC","title":"Date/Time of Measurements","type":"SDTM Dataset Variable"}},"core":"Exp","describedValueDomain":"ISO 8601","description":"Date and time of the vital signs assessment represented in ISO 8601 character format.","label":"Date/Time of Measurements","name":"VSDTC","ordinal":"29","role":"Timing","simpleDatatype":"Char"},{"_links":{"modelClassVariable":{"href":"/mdr/sdtm/1-7/classes/GeneralObservations/variables/--DY","title":"Study Day of Visit/Collection/Exam","type":"Class Variable"},"parentDataset":{"href":"/mdr/sdtmig/3-3/datasets/VS","title":"Vital Signs","type":"SDTM Dataset"},"parentProduct":{"href":"/mdr/sdtmig/3-3","title":"Study Data Tabulation Model Implementation Guide: Human Clinical Trials Version 3.3 (Final)","type":"Implementation Guide"},"priorVersion":{"href":"/mdr/sdtmig/3-2/datasets/VS/variables/VSDY","title":"Study Day of Vital Signs","type":"SDTM Dataset Variable"},"rootItem":{"href":"/mdr/root/sdtmig/datasets/VS/variables/VSDY","title":"Version-agnostic anchor resource for SDTMIG variable VS.VSDY","type":"Root Data Element"},"self":{"href":"/mdr/sdtmig/3-3/datasets/VS/variables/VSDY","title":"Study Day of Vital Signs","type":"SDTM Dataset Variable"}},"core":"Perm","description":"1. Study day of vital signs measurements, measured as integer days.\n2. Algorithm for calculations must be relative to the sponsor-defined RFSTDTC variable in Demographics.","label":"Study Day of Vital Signs","name":"VSDY","ordinal":"30","role":"Timing","simpleDatatype":"Num"},{"_links":{"modelClassVariable":{"href":"/mdr/sdtm/1-7/classes/GeneralObservations/variables/--TPT","title":"Planned Time Point Name","type":"Class Variable"},"parentDataset":{"href":"/mdr/sdtmig/3-3/datasets/VS","title":"Vital Signs","type":"SDTM Dataset"},"parentProduct":{"href":"/mdr/sdtmig/3-3","title":"Study Data Tabulation Model Implementation Guide: Human Clinical Trials Version 3.3 (Final)","type":"Implementation Guide"},"priorVersion":{"href":"/mdr/sdtmig/3-2/datasets/VS/variables/VSTPT","title":"Planned Time Point Name","type":"SDTM Dataset Variable"},"rootItem":{"href":"/mdr/root/sdtmig/datasets/VS/variables/VSTPT","title":"Version-agnostic anchor resource for SDTMIG variable VS.VSTPT","type":"Root Data Element"},"self":{"href":"/mdr/sdtmig/3-3/datasets/VS/variables/VSTPT","title":"Planned Time Point Name","type":"SDTM Dataset Variable"}},"core":"Perm","description":"1. Text description of time when measurement should be taken.\n2. This may be represented as an elapsed time relative to a fixed reference point, such as time of last dose. See VSTPTNUM and VSTPTREF. Examples: \"Start\", \"5 min post\".","label":"Planned Time Point Name","name":"VSTPT","ordinal":"31","role":"Timing","simpleDatatype":"Char"},{"_links":{"modelClassVariable":{"href":"/mdr/sdtm/1-7/classes/GeneralObservations/variables/--TPTNUM","title":"Planned Time Point Number","type":"Class Variable"},"parentDataset":{"href":"/mdr/sdtmig/3-3/datasets/VS","title":"Vital Signs","type":"SDTM Dataset"},"parentProduct":{"href":"/mdr/sdtmig/3-3","title":"Study Data Tabulation Model Implementation Guide: Human Clinical Trials Version 3.3 (Final)","type":"Implementation Guide"},"priorVersion":{"href":"/mdr/sdtmig/3-2/datasets/VS/variables/VSTPTNUM","title":"Planned Time Point Number","type":"SDTM Dataset Variable"},"rootItem":{"href":"/mdr/root/sdtmig/datasets/VS/variables/VSTPTNUM","title":"Version-agnostic anchor resource for SDTMIG variable VS.VSTPTNUM","type":"Root Data Element"},"self":{"href":"/mdr/sdtmig/3-3/datasets/VS/variables/VSTPTNUM","title":"Planned Time Point Number","type":"SDTM Dataset Variable"}},"core":"Perm","description":"Numerical version of VSTPT to aid in sorting.","label":"Planned Time Point Number","name":"VSTPTNUM","ordinal":"32","role":"Timing","simpleDatatype":"Num"},{"_links":{"modelClassVariable":{"href":"/mdr/sdtm/1-7/classes/GeneralObservations/variables/--ELTM","title":"Planned Elapsed Time from Time Point Ref","type":"Class Variable"},"parentDataset":{"href":"/mdr/sdtmig/3-3/datasets/VS","title":"Vital Signs","type":"SDTM Dataset"},"parentProduct":{"href":"/mdr/sdtmig/3-3","title":"Study Data Tabulation Model Implementation Guide: Human Clinical Trials Version 3.3 (Final)","type":"Implementation Guide"},"priorVersion":{"href":"/mdr/sdtmig/3-2/datasets/VS/variables/VSELTM","title":"Planned Elapsed Time from Time Point Ref","type":"SDTM Dataset Variable"},"rootItem":{"href":"/mdr/root/sdtmig/datasets/VS/variables/VSELTM","title":"Version-agnostic anchor resource for SDTMIG variable VS.VSELTM","type":"Root Data Element"},"self":{"href":"/mdr/sdtmig/3-3/datasets/VS/variables/VSELTM","title":"Planned Elapsed Time from Time Point Ref","type":"SDTM Dataset Variable"}},"core":"Perm","describedValueDomain":"ISO 8601","description":"Planned elapsed time (in ISO 8601) relative to a planned fixed reference (VSTPTREF). This variable is useful where there are repetitive measures. Not a clock time or a date time variable. Represented as an ISO 8601 Duration. Examples: \"-PT15M\" to represent the period of 15 minutes prior to the reference point indicated by VSTPTREF, or \"PT8H\" to represent the period of 8 hours after the reference point indicated by VSTPTREF.","label":"Planned Elapsed Time from Time Point Ref","name":"VSELTM","ordinal":"33","role":"Timing","simpleDatatype":"Char"},{"_links":{"modelClassVariable":{"href":"/mdr/sdtm/1-7/classes/GeneralObservations/variables/--TPTREF","title":"Time Point Reference","type":"Class Variable"},"parentDataset":{"href":"/mdr/sdtmig/3-3/datasets/VS","title":"Vital Signs","type":"SDTM Dataset"},"parentProduct":{"href":"/mdr/sdtmig/3-3","title":"Study Data Tabulation Model Implementation Guide: Human Clinical Trials Version 3.3 (Final)","type":"Implementation Guide"},"priorVersion":{"href":"/mdr/sdtmig/3-2/datasets/VS/variables/VSTPTREF","title":"Time Point Reference","type":"SDTM Dataset Variable"},"rootItem":{"href":"/mdr/root/sdtmig/datasets/VS/variables/VSTPTREF","title":"Version-agnostic anchor resource for SDTMIG variable VS.VSTPTREF","type":"Root Data Element"},"self":{"href":"/mdr/sdtmig/3-3/datasets/VS/variables/VSTPTREF","title":"Time Point Reference","type":"SDTM Dataset Variable"}},"core":"Perm","description":"Name of the fixed reference point referred to by VSELTM, VSTPTNUM, and VSTPT. Examples: \"PREVIOUS DOSE\", \"PREVIOUS MEAL\".","label":"Time Point Reference","name":"VSTPTREF","ordinal":"34","role":"Timing","simpleDatatype":"Char"},{"_links":{"modelClassVariable":{"href":"/mdr/sdtm/1-7/classes/GeneralObservations/variables/--RFTDTC","title":"Date/Time of Reference Time Point","type":"Class Variable"},"parentDataset":{"href":"/mdr/sdtmig/3-3/datasets/VS","title":"Vital Signs","type":"SDTM Dataset"},"parentProduct":{"href":"/mdr/sdtmig/3-3","title":"Study Data Tabulation Model Implementation Guide: Human Clinical Trials Version 3.3 (Final)","type":"Implementation Guide"},"priorVersion":{"href":"/mdr/sdtmig/3-2/datasets/VS/variables/VSRFTDTC","title":"Date/Time of Reference Time Point","type":"SDTM Dataset Variable"},"rootItem":{"href":"/mdr/root/sdtmig/datasets/VS/variables/VSRFTDTC","title":"Version-agnostic anchor resource for SDTMIG variable VS.VSRFTDTC","type":"Root Data Element"},"self":{"href":"/mdr/sdtmig/3-3/datasets/VS/variables/VSRFTDTC","title":"Date/Time of Reference Time Point","type":"SDTM Dataset Variable"}},"core":"Perm","describedValueDomain":"ISO 8601","description":"Date/time of the reference time point, VSTPTREF.","label":"Date/Time of Reference Time Point","name":"VSRFTDTC","ordinal":"35","role":"Timing","simpleDatatype":"Char"}],"description":"A findings domain that contains measurements including but not limited to blood pressure, temperature, respiration, body surface area, body mass index, height and weight. (Source: CDISC Controlled Terminology, DOMAIN, C49622, 2018-06-29)","label":"Vital Signs","name":"VS","ordinal":"46"}
