<?xml version="1.0" encoding="UTF-8"?>
<LIBRARY>
   <ItemGroupDef>
      <table>TA</table>
      <label>Trial Arms</label>
      <order>1</order>
      <repeating>No</repeating>
      <isreferencedata>Yes</isreferencedata>
      <domain>TA</domain>
      <domaindescription/>
      <class>TRIAL DESIGN</class>
      <xmlpath>ta.xpt</xmlpath>
      <xmltitle>ta.xpt</xmltitle>
      <structure>One record per planned Element per Arm</structure>
      <purpose>Tabulation</purpose>
      <keys>STUDYID ARMCD TAETORD</keys>
      <date>2013-03-03</date>
      <comment/>
      <studyversion>MDV.CDISC01.SDTMIG.3.1.2.SDTM.1.2</studyversion>
      <standard>SDTM-IG</standard>
      <standardversion>3.1.2</standardversion>
   </ItemGroupDef>
   <ItemRefItemDef>
      <table>TA</table>
      <column>STUDYID</column>
      <label>Study Identifier</label>
      <order>1</order>
      <length>7</length>
      <displayformat/>
      <significantdigits/>
      <xmldatatype>text</xmldatatype>
      <xmlcodelist/>
      <origin>Protocol</origin>
      <origindescription/>
      <role/>
      <algorithm/>
      <algorithmtype/>
      <formalexpression/>
      <formalexpressioncontext/>
      <comment/>
      <studyversion>MDV.CDISC01.SDTMIG.3.1.2.SDTM.1.2</studyversion>
      <standard>SDTM-IG</standard>
      <standardversion>3.1.2</standardversion>
   </ItemRefItemDef>
   <ItemRefItemDef>
      <table>TA</table>
      <column>DOMAIN</column>
      <label>Domain Abbreviation</label>
      <order>2</order>
      <length>2</length>
      <displayformat/>
      <significantdigits/>
      <xmldatatype>text</xmldatatype>
      <xmlcodelist>CL.TA.DOMAIN</xmlcodelist>
      <origin>Assigned</origin>
      <origindescription/>
      <role/>
      <algorithm/>
      <algorithmtype/>
      <formalexpression/>
      <formalexpressioncontext/>
      <comment/>
      <studyversion>MDV.CDISC01.SDTMIG.3.1.2.SDTM.1.2</studyversion>
      <standard>SDTM-IG</standard>
      <standardversion>3.1.2</standardversion>
   </ItemRefItemDef>
   <ItemRefItemDef>
      <table>TA</table>
      <column>ARMCD</column>
      <label>Planned Arm Code</label>
      <order>3</order>
      <length>8</length>
      <displayformat/>
      <significantdigits/>
      <xmldatatype>text</xmldatatype>
      <xmlcodelist>CL.ARMCD</xmlcodelist>
      <origin>Assigned</origin>
      <origindescription/>
      <role/>
      <algorithm/>
      <algorithmtype/>
      <formalexpression/>
      <formalexpressioncontext/>
      <comment/>
      <studyversion>MDV.CDISC01.SDTMIG.3.1.2.SDTM.1.2</studyversion>
      <standard>SDTM-IG</standard>
      <standardversion>3.1.2</standardversion>
   </ItemRefItemDef>
   <ItemRefItemDef>
      <table>TA</table>
      <column>ARM</column>
      <label>Description of Planned Arm</label>
      <order>4</order>
      <length>20</length>
      <displayformat/>
      <significantdigits/>
      <xmldatatype>text</xmldatatype>
      <xmlcodelist>CL.ARM</xmlcodelist>
      <origin>Protocol</origin>
      <origindescription/>
      <role/>
      <algorithm/>
      <algorithmtype/>
      <formalexpression/>
      <formalexpressioncontext/>
      <comment/>
      <studyversion>MDV.CDISC01.SDTMIG.3.1.2.SDTM.1.2</studyversion>
      <standard>SDTM-IG</standard>
      <standardversion>3.1.2</standardversion>
   </ItemRefItemDef>
   <ItemRefItemDef>
      <table>TA</table>
      <column>TAETORD</column>
      <label>Order of Element within Arm</label>
      <order>5</order>
      <length>1</length>
      <displayformat/>
      <significantdigits/>
      <xmldatatype>integer</xmldatatype>
      <xmlcodelist/>
      <origin>Assigned</origin>
      <origindescription/>
      <role/>
      <algorithm/>
      <algorithmtype/>
      <formalexpression/>
      <formalexpressioncontext/>
      <comment/>
      <studyversion>MDV.CDISC01.SDTMIG.3.1.2.SDTM.1.2</studyversion>
      <standard>SDTM-IG</standard>
      <standardversion>3.1.2</standardversion>
   </ItemRefItemDef>
   <ItemRefItemDef>
      <table>TA</table>
      <column>ETCD</column>
      <label>Element Code</label>
      <order>6</order>
      <length>8</length>
      <displayformat/>
      <significantdigits/>
      <xmldatatype>text</xmldatatype>
      <xmlcodelist/>
      <origin>Assigned</origin>
      <origindescription/>
      <role/>
      <algorithm/>
      <algorithmtype/>
      <formalexpression/>
      <formalexpressioncontext/>
      <comment/>
      <studyversion>MDV.CDISC01.SDTMIG.3.1.2.SDTM.1.2</studyversion>
      <standard>SDTM-IG</standard>
      <standardversion>3.1.2</standardversion>
   </ItemRefItemDef>
   <ItemRefItemDef>
      <table>TA</table>
      <column>ELEMENT</column>
      <label>Description of Element</label>
      <order>7</order>
      <length>40</length>
      <displayformat/>
      <significantdigits/>
      <xmldatatype>text</xmldatatype>
      <xmlcodelist/>
      <origin>Protocol</origin>
      <origindescription/>
      <role/>
      <algorithm/>
      <algorithmtype/>
      <formalexpression/>
      <formalexpressioncontext/>
      <comment/>
      <studyversion>MDV.CDISC01.SDTMIG.3.1.2.SDTM.1.2</studyversion>
      <standard>SDTM-IG</standard>
      <standardversion>3.1.2</standardversion>
   </ItemRefItemDef>
   <ItemRefItemDef>
      <table>TA</table>
      <column>TABRANCH</column>
      <label>Branch</label>
      <order>8</order>
      <length>35</length>
      <displayformat/>
      <significantdigits/>
      <xmldatatype>text</xmldatatype>
      <xmlcodelist/>
      <origin>Protocol</origin>
      <origindescription/>
      <role/>
      <algorithm/>
      <algorithmtype/>
      <formalexpression/>
      <formalexpressioncontext/>
      <comment/>
      <studyversion>MDV.CDISC01.SDTMIG.3.1.2.SDTM.1.2</studyversion>
      <standard>SDTM-IG</standard>
      <standardversion>3.1.2</standardversion>
   </ItemRefItemDef>
   <ItemRefItemDef>
      <table>TA</table>
      <column>TATRANS</column>
      <label>Transition Rule</label>
      <order>9</order>
      <length>1</length>
      <displayformat/>
      <significantdigits/>
      <xmldatatype>text</xmldatatype>
      <xmlcodelist/>
      <origin>Protocol</origin>
      <origindescription/>
      <role/>
      <algorithm/>
      <algorithmtype/>
      <formalexpression/>
      <formalexpressioncontext/>
      <comment/>
      <studyversion>MDV.CDISC01.SDTMIG.3.1.2.SDTM.1.2</studyversion>
      <standard>SDTM-IG</standard>
      <standardversion>3.1.2</standardversion>
   </ItemRefItemDef>
   <ItemRefItemDef>
      <table>TA</table>
      <column>EPOCH</column>
      <label>Epoch</label>
      <order>10</order>
      <length>30</length>
      <displayformat/>
      <significantdigits/>
      <xmldatatype>text</xmldatatype>
      <xmlcodelist/>
      <origin>Protocol</origin>
      <origindescription/>
      <role/>
      <algorithm/>
      <algorithmtype/>
      <formalexpression/>
      <formalexpressioncontext/>
      <comment/>
      <studyversion>MDV.CDISC01.SDTMIG.3.1.2.SDTM.1.2</studyversion>
      <standard>SDTM-IG</standard>
      <standardversion>3.1.2</standardversion>
   </ItemRefItemDef>
   <ItemGroupDef>
      <table>TE</table>
      <label>Trial Elements</label>
      <order>2</order>
      <repeating>No</repeating>
      <isreferencedata>Yes</isreferencedata>
      <domain>TE</domain>
      <domaindescription/>
      <class>TRIAL DESIGN</class>
      <xmlpath>te.xpt</xmlpath>
      <xmltitle>te.xpt</xmltitle>
      <structure>One record per planned Element</structure>
      <purpose>Tabulation</purpose>
      <keys>STUDYID ETCD</keys>
      <date>2013-03-03</date>
      <comment/>
      <studyversion>MDV.CDISC01.SDTMIG.3.1.2.SDTM.1.2</studyversion>
      <standard>SDTM-IG</standard>
      <standardversion>3.1.2</standardversion>
   </ItemGroupDef>
   <ItemRefItemDef>
      <table>TE</table>
      <column>STUDYID</column>
      <label>Study Identifier</label>
      <order>1</order>
      <length>7</length>
      <displayformat/>
      <significantdigits/>
      <xmldatatype>text</xmldatatype>
      <xmlcodelist/>
      <origin>Protocol</origin>
      <origindescription/>
      <role/>
      <algorithm/>
      <algorithmtype/>
      <formalexpression/>
      <formalexpressioncontext/>
      <comment/>
      <studyversion>MDV.CDISC01.SDTMIG.3.1.2.SDTM.1.2</studyversion>
      <standard>SDTM-IG</standard>
      <standardversion>3.1.2</standardversion>
   </ItemRefItemDef>
   <ItemRefItemDef>
      <table>TE</table>
      <column>DOMAIN</column>
      <label>Domain Abbreviation</label>
      <order>2</order>
      <length>2</length>
      <displayformat/>
      <significantdigits/>
      <xmldatatype>text</xmldatatype>
      <xmlcodelist>CL.TE.DOMAIN</xmlcodelist>
      <origin>Assigned</origin>
      <origindescription/>
      <role/>
      <algorithm/>
      <algorithmtype/>
      <formalexpression/>
      <formalexpressioncontext/>
      <comment/>
      <studyversion>MDV.CDISC01.SDTMIG.3.1.2.SDTM.1.2</studyversion>
      <standard>SDTM-IG</standard>
      <standardversion>3.1.2</standardversion>
   </ItemRefItemDef>
   <ItemRefItemDef>
      <table>TE</table>
      <column>ETCD</column>
      <label>Element Code</label>
      <order>3</order>
      <length>8</length>
      <displayformat/>
      <significantdigits/>
      <xmldatatype>text</xmldatatype>
      <xmlcodelist/>
      <origin>Assigned</origin>
      <origindescription/>
      <role/>
      <algorithm/>
      <algorithmtype/>
      <formalexpression/>
      <formalexpressioncontext/>
      <comment/>
      <studyversion>MDV.CDISC01.SDTMIG.3.1.2.SDTM.1.2</studyversion>
      <standard>SDTM-IG</standard>
      <standardversion>3.1.2</standardversion>
   </ItemRefItemDef>
   <ItemRefItemDef>
      <table>TE</table>
      <column>ELEMENT</column>
      <label>Description of Element</label>
      <order>4</order>
      <length>40</length>
      <displayformat/>
      <significantdigits/>
      <xmldatatype>text</xmldatatype>
      <xmlcodelist/>
      <origin>Protocol</origin>
      <origindescription/>
      <role/>
      <algorithm/>
      <algorithmtype/>
      <formalexpression/>
      <formalexpressioncontext/>
      <comment/>
      <studyversion>MDV.CDISC01.SDTMIG.3.1.2.SDTM.1.2</studyversion>
      <standard>SDTM-IG</standard>
      <standardversion>3.1.2</standardversion>
   </ItemRefItemDef>
   <ItemRefItemDef>
      <table>TE</table>
      <column>TESTRL</column>
      <label>Rule for Start of Element</label>
      <order>5</order>
      <length>24</length>
      <displayformat/>
      <significantdigits/>
      <xmldatatype>text</xmldatatype>
      <xmlcodelist/>
      <origin>Protocol</origin>
      <origindescription/>
      <role/>
      <algorithm/>
      <algorithmtype/>
      <formalexpression/>
      <formalexpressioncontext/>
      <comment/>
      <studyversion>MDV.CDISC01.SDTMIG.3.1.2.SDTM.1.2</studyversion>
      <standard>SDTM-IG</standard>
      <standardversion>3.1.2</standardversion>
   </ItemRefItemDef>
   <ItemRefItemDef>
      <table>TE</table>
      <column>TEDUR</column>
      <label>Planned Duration of Element</label>
      <order>6</order>
      <length>4</length>
      <displayformat/>
      <significantdigits/>
      <xmldatatype>text</xmldatatype>
      <xmlcodelist/>
      <origin>Protocol</origin>
      <origindescription/>
      <role/>
      <algorithm/>
      <algorithmtype/>
      <formalexpression/>
      <formalexpressioncontext/>
      <comment/>
      <studyversion>MDV.CDISC01.SDTMIG.3.1.2.SDTM.1.2</studyversion>
      <standard>SDTM-IG</standard>
      <standardversion>3.1.2</standardversion>
   </ItemRefItemDef>
   <ItemGroupDef>
      <table>TI</table>
      <label>Trial Inclusion/Exclusion Criteria</label>
      <order>3</order>
      <repeating>No</repeating>
      <isreferencedata>Yes</isreferencedata>
      <domain>TI</domain>
      <domaindescription/>
      <class>TRIAL DESIGN</class>
      <xmlpath>ti.xpt</xmlpath>
      <xmltitle>ti.xpt</xmltitle>
      <structure>One record per I/E criterion</structure>
      <purpose>Tabulation</purpose>
      <keys>STUDYID IETESTCD</keys>
      <date>2013-03-03</date>
      <comment/>
      <studyversion>MDV.CDISC01.SDTMIG.3.1.2.SDTM.1.2</studyversion>
      <standard>SDTM-IG</standard>
      <standardversion>3.1.2</standardversion>
   </ItemGroupDef>
   <ItemRefItemDef>
      <table>TI</table>
      <column>STUDYID</column>
      <label>Study Identifier</label>
      <order>1</order>
      <length>7</length>
      <displayformat/>
      <significantdigits/>
      <xmldatatype>text</xmldatatype>
      <xmlcodelist/>
      <origin>Protocol</origin>
      <origindescription/>
      <role/>
      <algorithm/>
      <algorithmtype/>
      <formalexpression/>
      <formalexpressioncontext/>
      <comment/>
      <studyversion>MDV.CDISC01.SDTMIG.3.1.2.SDTM.1.2</studyversion>
      <standard>SDTM-IG</standard>
      <standardversion>3.1.2</standardversion>
   </ItemRefItemDef>
   <ItemRefItemDef>
      <table>TI</table>
      <column>DOMAIN</column>
      <label>Domain Abbreviation</label>
      <order>2</order>
      <length>2</length>
      <displayformat/>
      <significantdigits/>
      <xmldatatype>text</xmldatatype>
      <xmlcodelist>CL.TI.DOMAIN</xmlcodelist>
      <origin>Assigned</origin>
      <origindescription/>
      <role/>
      <algorithm/>
      <algorithmtype/>
      <formalexpression/>
      <formalexpressioncontext/>
      <comment/>
      <studyversion>MDV.CDISC01.SDTMIG.3.1.2.SDTM.1.2</studyversion>
      <standard>SDTM-IG</standard>
      <standardversion>3.1.2</standardversion>
   </ItemRefItemDef>
   <ItemRefItemDef>
      <table>TI</table>
      <column>IETESTCD</column>
      <label>Incl/Excl Criterion Short Name</label>
      <order>3</order>
      <length>6</length>
      <displayformat/>
      <significantdigits/>
      <xmldatatype>text</xmldatatype>
      <xmlcodelist>CL.IETESTCD</xmlcodelist>
      <origin>Assigned</origin>
      <origindescription/>
      <role/>
      <algorithm/>
      <algorithmtype/>
      <formalexpression/>
      <formalexpressioncontext/>
      <comment/>
      <studyversion>MDV.CDISC01.SDTMIG.3.1.2.SDTM.1.2</studyversion>
      <standard>SDTM-IG</standard>
      <standardversion>3.1.2</standardversion>
   </ItemRefItemDef>
   <ItemRefItemDef>
      <table>TI</table>
      <column>IETEST</column>
      <label>Inclusion/Exclusion Criterion</label>
      <order>4</order>
      <length>92</length>
      <displayformat/>
      <significantdigits/>
      <xmldatatype>text</xmldatatype>
      <xmlcodelist>CL.IETEST</xmlcodelist>
      <origin>CRF</origin>
      <origindescription/>
      <role/>
      <algorithm/>
      <algorithmtype/>
      <formalexpression/>
      <formalexpressioncontext/>
      <comment/>
      <studyversion>MDV.CDISC01.SDTMIG.3.1.2.SDTM.1.2</studyversion>
      <standard>SDTM-IG</standard>
      <standardversion>3.1.2</standardversion>
   </ItemRefItemDef>
   <ItemRefItemDef>
      <table>TI</table>
      <column>IECAT</column>
      <label>Inclusion/Exclusion Category</label>
      <order>5</order>
      <length>9</length>
      <displayformat/>
      <significantdigits/>
      <xmldatatype>text</xmldatatype>
      <xmlcodelist/>
      <origin>CRF</origin>
      <origindescription/>
      <role/>
      <algorithm/>
      <algorithmtype/>
      <formalexpression/>
      <formalexpressioncontext/>
      <comment/>
      <studyversion>MDV.CDISC01.SDTMIG.3.1.2.SDTM.1.2</studyversion>
      <standard>SDTM-IG</standard>
      <standardversion>3.1.2</standardversion>
   </ItemRefItemDef>
   <ItemGroupDef>
      <table>TS</table>
      <label>Trial Summary</label>
      <order>4</order>
      <repeating>No</repeating>
      <isreferencedata>Yes</isreferencedata>
      <domain>TS</domain>
      <domaindescription/>
      <class>TRIAL DESIGN</class>
      <xmlpath>ts.xpt</xmlpath>
      <xmltitle>ts.xpt</xmltitle>
      <structure>One record per trial summary parameter value</structure>
      <purpose>Tabulation</purpose>
      <keys>STUDYID TSPARMCD TSSEQ</keys>
      <date>2013-03-03</date>
      <comment/>
      <studyversion>MDV.CDISC01.SDTMIG.3.1.2.SDTM.1.2</studyversion>
      <standard>SDTM-IG</standard>
      <standardversion>3.1.2</standardversion>
   </ItemGroupDef>
   <ItemRefItemDef>
      <table>TS</table>
      <column>STUDYID</column>
      <label>Study Identifier</label>
      <order>1</order>
      <length>7</length>
      <displayformat/>
      <significantdigits/>
      <xmldatatype>text</xmldatatype>
      <xmlcodelist/>
      <origin>Protocol</origin>
      <origindescription/>
      <role/>
      <algorithm/>
      <algorithmtype/>
      <formalexpression/>
      <formalexpressioncontext/>
      <comment/>
      <studyversion>MDV.CDISC01.SDTMIG.3.1.2.SDTM.1.2</studyversion>
      <standard>SDTM-IG</standard>
      <standardversion>3.1.2</standardversion>
   </ItemRefItemDef>
   <ItemRefItemDef>
      <table>TS</table>
      <column>DOMAIN</column>
      <label>Domain Abbreviation</label>
      <order>2</order>
      <length>2</length>
      <displayformat/>
      <significantdigits/>
      <xmldatatype>text</xmldatatype>
      <xmlcodelist>CL.TS.DOMAIN</xmlcodelist>
      <origin>Assigned</origin>
      <origindescription/>
      <role/>
      <algorithm/>
      <algorithmtype/>
      <formalexpression/>
      <formalexpressioncontext/>
      <comment/>
      <studyversion>MDV.CDISC01.SDTMIG.3.1.2.SDTM.1.2</studyversion>
      <standard>SDTM-IG</standard>
      <standardversion>3.1.2</standardversion>
   </ItemRefItemDef>
   <ItemRefItemDef>
      <table>TS</table>
      <column>TSSEQ</column>
      <label>Sequence Number</label>
      <order>3</order>
      <length>1</length>
      <displayformat/>
      <significantdigits/>
      <xmldatatype>integer</xmldatatype>
      <xmlcodelist/>
      <origin>Derived</origin>
      <origindescription/>
      <role/>
      <algorithm>Sequential number identifying records within each TSPARM in the domain.</algorithm>
      <algorithmtype>Computation</algorithmtype>
      <formalexpression/>
      <formalexpressioncontext/>
      <comment/>
      <studyversion>MDV.CDISC01.SDTMIG.3.1.2.SDTM.1.2</studyversion>
      <standard>SDTM-IG</standard>
      <standardversion>3.1.2</standardversion>
   </ItemRefItemDef>
   <ItemRefItemDef>
      <table>TS</table>
      <column>TSPARMCD</column>
      <label>Trial Summary Parameter Short Name</label>
      <order>4</order>
      <length>8</length>
      <displayformat/>
      <significantdigits/>
      <xmldatatype>text</xmldatatype>
      <xmlcodelist>CL.TSPARMCD</xmlcodelist>
      <origin>Assigned</origin>
      <origindescription/>
      <role/>
      <algorithm/>
      <algorithmtype/>
      <formalexpression/>
      <formalexpressioncontext/>
      <comment/>
      <studyversion>MDV.CDISC01.SDTMIG.3.1.2.SDTM.1.2</studyversion>
      <standard>SDTM-IG</standard>
      <standardversion>3.1.2</standardversion>
   </ItemRefItemDef>
   <ItemRefItemDef>
      <table>TS</table>
      <column>TSPARM</column>
      <label>Trial Summary Parameter</label>
      <order>5</order>
      <length>36</length>
      <displayformat/>
      <significantdigits/>
      <xmldatatype>text</xmldatatype>
      <xmlcodelist>CL.TSPARM</xmlcodelist>
      <origin>Assigned</origin>
      <origindescription/>
      <role/>
      <algorithm/>
      <algorithmtype/>
      <formalexpression/>
      <formalexpressioncontext/>
      <comment/>
      <studyversion>MDV.CDISC01.SDTMIG.3.1.2.SDTM.1.2</studyversion>
      <standard>SDTM-IG</standard>
      <standardversion>3.1.2</standardversion>
   </ItemRefItemDef>
   <ItemRefItemDef>
      <table>TS</table>
      <column>TSVAL</column>
      <label>Parameter Value</label>
      <order>6</order>
      <length>57</length>
      <displayformat/>
      <significantdigits/>
      <xmldatatype>text</xmldatatype>
      <xmlcodelist/>
      <origin>Protocol</origin>
      <origindescription/>
      <role/>
      <algorithm/>
      <algorithmtype/>
      <formalexpression/>
      <formalexpressioncontext/>
      <comment/>
      <studyversion>MDV.CDISC01.SDTMIG.3.1.2.SDTM.1.2</studyversion>
      <standard>SDTM-IG</standard>
      <standardversion>3.1.2</standardversion>
   </ItemRefItemDef>
   <ItemGroupDef>
      <table>TV</table>
      <label>Trial Visits</label>
      <order>5</order>
      <repeating>No</repeating>
      <isreferencedata>Yes</isreferencedata>
      <domain>TV</domain>
      <domaindescription/>
      <class>TRIAL DESIGN</class>
      <xmlpath>tv.xpt</xmlpath>
      <xmltitle>tv.xpt</xmltitle>
      <structure>One record per planned Visit per Arm</structure>
      <purpose>Tabulation</purpose>
      <keys>STUDYID VISITNUM ARMCD</keys>
      <date>2013-03-03</date>
      <comment/>
      <studyversion>MDV.CDISC01.SDTMIG.3.1.2.SDTM.1.2</studyversion>
      <standard>SDTM-IG</standard>
      <standardversion>3.1.2</standardversion>
   </ItemGroupDef>
   <ItemRefItemDef>
      <table>TV</table>
      <column>STUDYID</column>
      <label>Study Identifier</label>
      <order>1</order>
      <length>7</length>
      <displayformat/>
      <significantdigits/>
      <xmldatatype>text</xmldatatype>
      <xmlcodelist/>
      <origin>Protocol</origin>
      <origindescription/>
      <role/>
      <algorithm/>
      <algorithmtype/>
      <formalexpression/>
      <formalexpressioncontext/>
      <comment/>
      <studyversion>MDV.CDISC01.SDTMIG.3.1.2.SDTM.1.2</studyversion>
      <standard>SDTM-IG</standard>
      <standardversion>3.1.2</standardversion>
   </ItemRefItemDef>
   <ItemRefItemDef>
      <table>TV</table>
      <column>DOMAIN</column>
      <label>Domain Abbreviation</label>
      <order>2</order>
      <length>2</length>
      <displayformat/>
      <significantdigits/>
      <xmldatatype>text</xmldatatype>
      <xmlcodelist>CL.TV.DOMAIN</xmlcodelist>
      <origin>Assigned</origin>
      <origindescription/>
      <role/>
      <algorithm/>
      <algorithmtype/>
      <formalexpression/>
      <formalexpressioncontext/>
      <comment/>
      <studyversion>MDV.CDISC01.SDTMIG.3.1.2.SDTM.1.2</studyversion>
      <standard>SDTM-IG</standard>
      <standardversion>3.1.2</standardversion>
   </ItemRefItemDef>
   <ItemRefItemDef>
      <table>TV</table>
      <column>VISITNUM</column>
      <label>Visit Number</label>
      <order>3</order>
      <length>2</length>
      <displayformat/>
      <significantdigits/>
      <xmldatatype>integer</xmldatatype>
      <xmlcodelist/>
      <origin>Assigned</origin>
      <origindescription/>
      <role/>
      <algorithm/>
      <algorithmtype/>
      <formalexpression/>
      <formalexpressioncontext/>
      <comment/>
      <studyversion>MDV.CDISC01.SDTMIG.3.1.2.SDTM.1.2</studyversion>
      <standard>SDTM-IG</standard>
      <standardversion>3.1.2</standardversion>
   </ItemRefItemDef>
   <ItemRefItemDef>
      <table>TV</table>
      <column>VISIT</column>
      <label>Visit Name</label>
      <order>4</order>
      <length>12</length>
      <displayformat/>
      <significantdigits/>
      <xmldatatype>text</xmldatatype>
      <xmlcodelist/>
      <origin>Protocol</origin>
      <origindescription/>
      <role/>
      <algorithm/>
      <algorithmtype/>
      <formalexpression/>
      <formalexpressioncontext/>
      <comment/>
      <studyversion>MDV.CDISC01.SDTMIG.3.1.2.SDTM.1.2</studyversion>
      <standard>SDTM-IG</standard>
      <standardversion>3.1.2</standardversion>
   </ItemRefItemDef>
   <ItemRefItemDef>
      <table>TV</table>
      <column>VISITDY</column>
      <label>Planned Study Day of Visit</label>
      <order>5</order>
      <length>3</length>
      <displayformat/>
      <significantdigits/>
      <xmldatatype>integer</xmldatatype>
      <xmlcodelist/>
      <origin>Protocol</origin>
      <origindescription/>
      <role/>
      <algorithm/>
      <algorithmtype/>
      <formalexpression/>
      <formalexpressioncontext/>
      <comment/>
      <studyversion>MDV.CDISC01.SDTMIG.3.1.2.SDTM.1.2</studyversion>
      <standard>SDTM-IG</standard>
      <standardversion>3.1.2</standardversion>
   </ItemRefItemDef>
   <ItemRefItemDef>
      <table>TV</table>
      <column>ARMCD</column>
      <label>Planned Arm Code</label>
      <order>6</order>
      <length>1</length>
      <displayformat/>
      <significantdigits/>
      <xmldatatype>text</xmldatatype>
      <xmlcodelist/>
      <origin>Assigned</origin>
      <origindescription/>
      <role/>
      <algorithm/>
      <algorithmtype/>
      <formalexpression/>
      <formalexpressioncontext/>
      <comment/>
      <studyversion>MDV.CDISC01.SDTMIG.3.1.2.SDTM.1.2</studyversion>
      <standard>SDTM-IG</standard>
      <standardversion>3.1.2</standardversion>
   </ItemRefItemDef>
   <ItemRefItemDef>
      <table>TV</table>
      <column>TVSTRL</column>
      <label>Visit Start Rule</label>
      <order>7</order>
      <length>30</length>
      <displayformat/>
      <significantdigits/>
      <xmldatatype>text</xmldatatype>
      <xmlcodelist/>
      <origin>Protocol</origin>
      <origindescription/>
      <role/>
      <algorithm/>
      <algorithmtype/>
      <formalexpression/>
      <formalexpressioncontext/>
      <comment/>
      <studyversion>MDV.CDISC01.SDTMIG.3.1.2.SDTM.1.2</studyversion>
      <standard>SDTM-IG</standard>
      <standardversion>3.1.2</standardversion>
   </ItemRefItemDef>
   <ItemGroupDef>
      <table>DM</table>
      <label>Demographics</label>
      <order>6</order>
      <repeating>No</repeating>
      <isreferencedata>No</isreferencedata>
      <domain>DM</domain>
      <domaindescription/>
      <class>SPECIAL PURPOSE</class>
      <xmlpath>dm.xpt</xmlpath>
      <xmltitle>dm.xpt</xmltitle>
      <structure>One record per subject</structure>
      <purpose>Tabulation</purpose>
      <keys>STUDYID USUBJID</keys>
      <date>2013-03-03</date>
      <comment>See Reviewer's Guide, Section 2.1 Demographics</comment>
      <studyversion>MDV.CDISC01.SDTMIG.3.1.2.SDTM.1.2</studyversion>
      <standard>SDTM-IG</standard>
      <standardversion>3.1.2</standardversion>
   </ItemGroupDef>
   <ItemRefItemDef>
      <table>DM</table>
      <column>STUDYID</column>
      <label>Study Identifier</label>
      <order>1</order>
      <length>7</length>
      <displayformat/>
      <significantdigits/>
      <xmldatatype>text</xmldatatype>
      <xmlcodelist/>
      <origin>Protocol</origin>
      <origindescription/>
      <role/>
      <algorithm/>
      <algorithmtype/>
      <formalexpression/>
      <formalexpressioncontext/>
      <comment/>
      <studyversion>MDV.CDISC01.SDTMIG.3.1.2.SDTM.1.2</studyversion>
      <standard>SDTM-IG</standard>
      <standardversion>3.1.2</standardversion>
   </ItemRefItemDef>
   <ItemRefItemDef>
      <table>DM</table>
      <column>DOMAIN</column>
      <label>Domain Abbreviation</label>
      <order>2</order>
      <length>2</length>
      <displayformat/>
      <significantdigits/>
      <xmldatatype>text</xmldatatype>
      <xmlcodelist>CL.DM.DOMAIN</xmlcodelist>
      <origin>Assigned</origin>
      <origindescription/>
      <role/>
      <algorithm/>
      <algorithmtype/>
      <formalexpression/>
      <formalexpressioncontext/>
      <comment/>
      <studyversion>MDV.CDISC01.SDTMIG.3.1.2.SDTM.1.2</studyversion>
      <standard>SDTM-IG</standard>
      <standardversion>3.1.2</standardversion>
   </ItemRefItemDef>
   <ItemRefItemDef>
      <table>DM</table>
      <column>USUBJID</column>
      <label>Unique Subject Identifier</label>
      <order>3</order>
      <length>14</length>
      <displayformat/>
      <significantdigits/>
      <xmldatatype>text</xmldatatype>
      <xmlcodelist/>
      <origin>Derived</origin>
      <origindescription/>
      <role/>
      <algorithm>Concatenation of STUDYID and SUBJID</algorithm>
      <algorithmtype>Computation</algorithmtype>
      <formalexpression>
          catx(".",STUDYID,SUBJID)
        </formalexpression>
      <formalexpressioncontext>SAS 9.0 or later, as part of a data step assignment or proc sql select and update statements.</formalexpressioncontext>
      <comment/>
      <studyversion>MDV.CDISC01.SDTMIG.3.1.2.SDTM.1.2</studyversion>
      <standard>SDTM-IG</standard>
      <standardversion>3.1.2</standardversion>
   </ItemRefItemDef>
   <ItemRefItemDef>
      <table>DM</table>
      <column>SUBJID</column>
      <label>Subject Identifier for the Study</label>
      <order>4</order>
      <length>6</length>
      <displayformat/>
      <significantdigits/>
      <xmldatatype>text</xmldatatype>
      <xmlcodelist/>
      <origin>CRF</origin>
      <origindescription/>
      <role/>
      <algorithm/>
      <algorithmtype/>
      <formalexpression/>
      <formalexpressioncontext/>
      <comment/>
      <studyversion>MDV.CDISC01.SDTMIG.3.1.2.SDTM.1.2</studyversion>
      <standard>SDTM-IG</standard>
      <standardversion>3.1.2</standardversion>
   </ItemRefItemDef>
   <ItemRefItemDef>
      <table>DM</table>
      <column>RFSTDTC</column>
      <label>Subject Reference Start Date/Time</label>
      <order>5</order>
      <length/>
      <displayformat/>
      <significantdigits/>
      <xmldatatype>date</xmldatatype>
      <xmlcodelist/>
      <origin>Derived</origin>
      <origindescription/>
      <role/>
      <algorithm>RFSTDTC = first date/time of study drug, for safety subject. Null for screen failures.
          </algorithm>
      <algorithmtype>Computation</algorithmtype>
      <formalexpression/>
      <formalexpressioncontext/>
      <comment/>
      <studyversion>MDV.CDISC01.SDTMIG.3.1.2.SDTM.1.2</studyversion>
      <standard>SDTM-IG</standard>
      <standardversion>3.1.2</standardversion>
   </ItemRefItemDef>
   <ItemRefItemDef>
      <table>DM</table>
      <column>RFENDTC</column>
      <label>Subject Reference End Date/Time</label>
      <order>6</order>
      <length/>
      <displayformat/>
      <significantdigits/>
      <xmldatatype>date</xmldatatype>
      <xmlcodelist/>
      <origin>Derived</origin>
      <origindescription/>
      <role/>
      <algorithm>RFENDTC = termination date, for safety subjects. Null for screen failures.
          </algorithm>
      <algorithmtype>Computation</algorithmtype>
      <formalexpression/>
      <formalexpressioncontext/>
      <comment/>
      <studyversion>MDV.CDISC01.SDTMIG.3.1.2.SDTM.1.2</studyversion>
      <standard>SDTM-IG</standard>
      <standardversion>3.1.2</standardversion>
   </ItemRefItemDef>
   <ItemRefItemDef>
      <table>DM</table>
      <column>SITEID</column>
      <label>Study Site Identifier</label>
      <order>7</order>
      <length>3</length>
      <displayformat/>
      <significantdigits/>
      <xmldatatype>text</xmldatatype>
      <xmlcodelist/>
      <origin>CRF</origin>
      <origindescription/>
      <role/>
      <algorithm/>
      <algorithmtype/>
      <formalexpression/>
      <formalexpressioncontext/>
      <comment/>
      <studyversion>MDV.CDISC01.SDTMIG.3.1.2.SDTM.1.2</studyversion>
      <standard>SDTM-IG</standard>
      <standardversion>3.1.2</standardversion>
   </ItemRefItemDef>
   <ItemRefItemDef>
      <table>DM</table>
      <column>BRTHDTC</column>
      <label>Date/Time of Birth</label>
      <order>8</order>
      <length/>
      <displayformat/>
      <significantdigits/>
      <xmldatatype>date</xmldatatype>
      <xmlcodelist/>
      <origin>CRF</origin>
      <origindescription/>
      <role/>
      <algorithm/>
      <algorithmtype/>
      <formalexpression/>
      <formalexpressioncontext/>
      <comment/>
      <studyversion>MDV.CDISC01.SDTMIG.3.1.2.SDTM.1.2</studyversion>
      <standard>SDTM-IG</standard>
      <standardversion>3.1.2</standardversion>
   </ItemRefItemDef>
   <ItemRefItemDef>
      <table>DM</table>
      <column>AGE</column>
      <label>Age</label>
      <order>9</order>
      <length>2</length>
      <displayformat/>
      <significantdigits/>
      <xmldatatype>integer</xmldatatype>
      <xmlcodelist/>
      <origin>Derived</origin>
      <origindescription/>
      <role/>
      <algorithm>Age at Screening Date (Screening Date - Birth date). For the complete algorithm see the
referenced external document.</algorithm>
      <algorithmtype>Computation</algorithmtype>
      <formalexpression/>
      <formalexpressioncontext/>
      <comment/>
      <studyversion>MDV.CDISC01.SDTMIG.3.1.2.SDTM.1.2</studyversion>
      <standard>SDTM-IG</standard>
      <standardversion>3.1.2</standardversion>
   </ItemRefItemDef>
   <ItemRefItemDef>
      <table>DM</table>
      <column>AGEU</column>
      <label>Age Units</label>
      <order>10</order>
      <length>5</length>
      <displayformat/>
      <significantdigits/>
      <xmldatatype>text</xmldatatype>
      <xmlcodelist/>
      <origin>Assigned</origin>
      <origindescription/>
      <role/>
      <algorithm/>
      <algorithmtype/>
      <formalexpression/>
      <formalexpressioncontext/>
      <comment>Defaulted to YEARS</comment>
      <studyversion>MDV.CDISC01.SDTMIG.3.1.2.SDTM.1.2</studyversion>
      <standard>SDTM-IG</standard>
      <standardversion>3.1.2</standardversion>
   </ItemRefItemDef>
   <ItemRefItemDef>
      <table>DM</table>
      <column>SEX</column>
      <label>Sex</label>
      <order>11</order>
      <length>1</length>
      <displayformat/>
      <significantdigits/>
      <xmldatatype>text</xmldatatype>
      <xmlcodelist>CL.SEX</xmlcodelist>
      <origin>CRF</origin>
      <origindescription/>
      <role/>
      <algorithm/>
      <algorithmtype/>
      <formalexpression/>
      <formalexpressioncontext/>
      <comment/>
      <studyversion>MDV.CDISC01.SDTMIG.3.1.2.SDTM.1.2</studyversion>
      <standard>SDTM-IG</standard>
      <standardversion>3.1.2</standardversion>
   </ItemRefItemDef>
   <ItemRefItemDef>
      <table>DM</table>
      <column>RACE</column>
      <label>Race</label>
      <order>12</order>
      <length>40</length>
      <displayformat/>
      <significantdigits/>
      <xmldatatype>text</xmldatatype>
      <xmlcodelist>CL.RACE</xmlcodelist>
      <origin>CRF</origin>
      <origindescription/>
      <role/>
      <algorithm/>
      <algorithmtype/>
      <formalexpression/>
      <formalexpressioncontext/>
      <comment/>
      <studyversion>MDV.CDISC01.SDTMIG.3.1.2.SDTM.1.2</studyversion>
      <standard>SDTM-IG</standard>
      <standardversion>3.1.2</standardversion>
   </ItemRefItemDef>
   <ItemRefItemDef>
      <table>DM</table>
      <column>ETHNIC</column>
      <label>Ethnicity</label>
      <order>13</order>
      <length>22</length>
      <displayformat/>
      <significantdigits/>
      <xmldatatype>text</xmldatatype>
      <xmlcodelist>CL.ETHNIC</xmlcodelist>
      <origin>CRF</origin>
      <origindescription/>
      <role/>
      <algorithm/>
      <algorithmtype/>
      <formalexpression/>
      <formalexpressioncontext/>
      <comment/>
      <studyversion>MDV.CDISC01.SDTMIG.3.1.2.SDTM.1.2</studyversion>
      <standard>SDTM-IG</standard>
      <standardversion>3.1.2</standardversion>
   </ItemRefItemDef>
   <ItemRefItemDef>
      <table>DM</table>
      <column>ARMCD</column>
      <label>Planned Arm Code</label>
      <order>14</order>
      <length>8</length>
      <displayformat/>
      <significantdigits/>
      <xmldatatype>text</xmldatatype>
      <xmlcodelist>CL.ARMCD</xmlcodelist>
      <origin>Assigned</origin>
      <origindescription/>
      <role/>
      <algorithm/>
      <algorithmtype/>
      <formalexpression/>
      <formalexpressioncontext/>
      <comment>Assigned based on Randomization Number. See Note 2.1</comment>
      <studyversion>MDV.CDISC01.SDTMIG.3.1.2.SDTM.1.2</studyversion>
      <standard>SDTM-IG</standard>
      <standardversion>3.1.2</standardversion>
   </ItemRefItemDef>
   <ItemRefItemDef>
      <table>DM</table>
      <column>ARM</column>
      <label>Description of Planned Arm</label>
      <order>15</order>
      <length>20</length>
      <displayformat/>
      <significantdigits/>
      <xmldatatype>text</xmldatatype>
      <xmlcodelist>CL.ARM</xmlcodelist>
      <origin>Assigned</origin>
      <origindescription/>
      <role/>
      <algorithm/>
      <algorithmtype/>
      <formalexpression/>
      <formalexpressioncontext/>
      <comment>Assigned from TA.ARM based on ARMCD.</comment>
      <studyversion>MDV.CDISC01.SDTMIG.3.1.2.SDTM.1.2</studyversion>
      <standard>SDTM-IG</standard>
      <standardversion>3.1.2</standardversion>
   </ItemRefItemDef>
   <ItemRefItemDef>
      <table>DM</table>
      <column>COUNTRY</column>
      <label>Country</label>
      <order>16</order>
      <length>3</length>
      <displayformat/>
      <significantdigits/>
      <xmldatatype>text</xmldatatype>
      <xmlcodelist>CL.ISO3166</xmlcodelist>
      <origin>Assigned</origin>
      <origindescription/>
      <role/>
      <algorithm/>
      <algorithmtype/>
      <formalexpression/>
      <formalexpressioncontext/>
      <comment/>
      <studyversion>MDV.CDISC01.SDTMIG.3.1.2.SDTM.1.2</studyversion>
      <standard>SDTM-IG</standard>
      <standardversion>3.1.2</standardversion>
   </ItemRefItemDef>
   <ItemGroupDef>
      <table>SE</table>
      <label>Subject Elements</label>
      <order>7</order>
      <repeating>Yes</repeating>
      <isreferencedata>No</isreferencedata>
      <domain>SE</domain>
      <domaindescription/>
      <class>SPECIAL PURPOSE</class>
      <xmlpath>se.xpt</xmlpath>
      <xmltitle>se.xpt</xmltitle>
      <structure>One record per actual Element per subject</structure>
      <purpose>Tabulation</purpose>
      <keys>STUDYID USUBJID SESTDTC SEENDTC TAETORD ETCD</keys>
      <date>2013-03-03</date>
      <comment/>
      <studyversion>MDV.CDISC01.SDTMIG.3.1.2.SDTM.1.2</studyversion>
      <standard>SDTM-IG</standard>
      <standardversion>3.1.2</standardversion>
   </ItemGroupDef>
   <ItemRefItemDef>
      <table>SE</table>
      <column>STUDYID</column>
      <label>Study Identifier</label>
      <order>1</order>
      <length>7</length>
      <displayformat/>
      <significantdigits/>
      <xmldatatype>text</xmldatatype>
      <xmlcodelist/>
      <origin>Protocol</origin>
      <origindescription/>
      <role/>
      <algorithm/>
      <algorithmtype/>
      <formalexpression/>
      <formalexpressioncontext/>
      <comment/>
      <studyversion>MDV.CDISC01.SDTMIG.3.1.2.SDTM.1.2</studyversion>
      <standard>SDTM-IG</standard>
      <standardversion>3.1.2</standardversion>
   </ItemRefItemDef>
   <ItemRefItemDef>
      <table>SE</table>
      <column>DOMAIN</column>
      <label>Domain Abbreviation</label>
      <order>2</order>
      <length>2</length>
      <displayformat/>
      <significantdigits/>
      <xmldatatype>text</xmldatatype>
      <xmlcodelist>CL.SE.DOMAIN</xmlcodelist>
      <origin>Assigned</origin>
      <origindescription/>
      <role/>
      <algorithm/>
      <algorithmtype/>
      <formalexpression/>
      <formalexpressioncontext/>
      <comment/>
      <studyversion>MDV.CDISC01.SDTMIG.3.1.2.SDTM.1.2</studyversion>
      <standard>SDTM-IG</standard>
      <standardversion>3.1.2</standardversion>
   </ItemRefItemDef>
   <ItemRefItemDef>
      <table>SE</table>
      <column>USUBJID</column>
      <label>Unique Subject Identifier</label>
      <order>3</order>
      <length>14</length>
      <displayformat/>
      <significantdigits/>
      <xmldatatype>text</xmldatatype>
      <xmlcodelist/>
      <origin>Derived</origin>
      <origindescription/>
      <role/>
      <algorithm>Concatenation of STUDYID and SUBJID</algorithm>
      <algorithmtype>Computation</algorithmtype>
      <formalexpression>
          catx(".",STUDYID,SUBJID)
        </formalexpression>
      <formalexpressioncontext>SAS 9.0 or later, as part of a data step assignment or proc sql select and update statements.</formalexpressioncontext>
      <comment/>
      <studyversion>MDV.CDISC01.SDTMIG.3.1.2.SDTM.1.2</studyversion>
      <standard>SDTM-IG</standard>
      <standardversion>3.1.2</standardversion>
   </ItemRefItemDef>
   <ItemRefItemDef>
      <table>SE</table>
      <column>SESEQ</column>
      <label>Sequence Number</label>
      <order>4</order>
      <length>1</length>
      <displayformat/>
      <significantdigits/>
      <xmldatatype>integer</xmldatatype>
      <xmlcodelist/>
      <origin>Derived</origin>
      <origindescription/>
      <role/>
      <algorithm>Sequential number identifying records within each USUBJID in the domain.</algorithm>
      <algorithmtype>Computation</algorithmtype>
      <formalexpression/>
      <formalexpressioncontext/>
      <comment/>
      <studyversion>MDV.CDISC01.SDTMIG.3.1.2.SDTM.1.2</studyversion>
      <standard>SDTM-IG</standard>
      <standardversion>3.1.2</standardversion>
   </ItemRefItemDef>
   <ItemRefItemDef>
      <table>SE</table>
      <column>ETCD</column>
      <label>Element Code</label>
      <order>5</order>
      <length>7</length>
      <displayformat/>
      <significantdigits/>
      <xmldatatype>text</xmldatatype>
      <xmlcodelist/>
      <origin>Assigned</origin>
      <origindescription/>
      <role/>
      <algorithm/>
      <algorithmtype/>
      <formalexpression/>
      <formalexpressioncontext/>
      <comment/>
      <studyversion>MDV.CDISC01.SDTMIG.3.1.2.SDTM.1.2</studyversion>
      <standard>SDTM-IG</standard>
      <standardversion>3.1.2</standardversion>
   </ItemRefItemDef>
   <ItemRefItemDef>
      <table>SE</table>
      <column>ELEMENT</column>
      <label>Description of Element</label>
      <order>6</order>
      <length>40</length>
      <displayformat/>
      <significantdigits/>
      <xmldatatype>text</xmldatatype>
      <xmlcodelist/>
      <origin>Protocol</origin>
      <origindescription/>
      <role/>
      <algorithm/>
      <algorithmtype/>
      <formalexpression/>
      <formalexpressioncontext/>
      <comment/>
      <studyversion>MDV.CDISC01.SDTMIG.3.1.2.SDTM.1.2</studyversion>
      <standard>SDTM-IG</standard>
      <standardversion>3.1.2</standardversion>
   </ItemRefItemDef>
   <ItemRefItemDef>
      <table>SE</table>
      <column>SESTDTC</column>
      <label>Start Date/Time of Element</label>
      <order>7</order>
      <length/>
      <displayformat/>
      <significantdigits/>
      <xmldatatype>date</xmldatatype>
      <xmlcodelist/>
      <origin>Derived</origin>
      <origindescription/>
      <role/>
      <algorithm>If Element = SCREEN, derived from SVSTDTC where VISIT = SCREENING or from DS where DSDECOD
= 'INFORMED CONSENT', whichever is earliest. If Element = EOS, derived from DS where DSCAT = DISPOSITION EVENT. For treatment
Elements, derived from first EXSTDTC for the element. For the complete algorithm see the referenced external document.
          </algorithm>
      <algorithmtype>Computation</algorithmtype>
      <formalexpression/>
      <formalexpressioncontext/>
      <comment/>
      <studyversion>MDV.CDISC01.SDTMIG.3.1.2.SDTM.1.2</studyversion>
      <standard>SDTM-IG</standard>
      <standardversion>3.1.2</standardversion>
   </ItemRefItemDef>
   <ItemRefItemDef>
      <table>SE</table>
      <column>SEENDTC</column>
      <label>End Date/Time of Element</label>
      <order>8</order>
      <length/>
      <displayformat/>
      <significantdigits/>
      <xmldatatype>date</xmldatatype>
      <xmlcodelist/>
      <origin>Derived</origin>
      <origindescription/>
      <role/>
      <algorithm>If Element = SCREEN, derived from SVENDTC where VISIT = SCREENING. If Element = EOS,
derived from DS where DSCAT = DISPOSITION EVENT or from the latest EXENDTC from EX whichever is later. For treatment Elements,
derived from last EXENDTC for the element. For the complete algorithm see the referenced external document.</algorithm>
      <algorithmtype>Computation</algorithmtype>
      <formalexpression/>
      <formalexpressioncontext/>
      <comment/>
      <studyversion>MDV.CDISC01.SDTMIG.3.1.2.SDTM.1.2</studyversion>
      <standard>SDTM-IG</standard>
      <standardversion>3.1.2</standardversion>
   </ItemRefItemDef>
   <ItemRefItemDef>
      <table>SE</table>
      <column>TAETORD</column>
      <label>Planned Order of Elements within Arm</label>
      <order>9</order>
      <length>1</length>
      <displayformat/>
      <significantdigits/>
      <xmldatatype>integer</xmldatatype>
      <xmlcodelist/>
      <origin>Protocol</origin>
      <origindescription/>
      <role/>
      <algorithm/>
      <algorithmtype/>
      <formalexpression/>
      <formalexpressioncontext/>
      <comment/>
      <studyversion>MDV.CDISC01.SDTMIG.3.1.2.SDTM.1.2</studyversion>
      <standard>SDTM-IG</standard>
      <standardversion>3.1.2</standardversion>
   </ItemRefItemDef>
   <ItemGroupDef>
      <table>SV</table>
      <label>Subject Visits</label>
      <order>8</order>
      <repeating>Yes</repeating>
      <isreferencedata>No</isreferencedata>
      <domain>SV</domain>
      <domaindescription/>
      <class>SPECIAL PURPOSE</class>
      <xmlpath>sv.xpt</xmlpath>
      <xmltitle>sv.xpt</xmltitle>
      <structure>One record per actual visit per subject</structure>
      <purpose>Tabulation</purpose>
      <keys>STUDYID USUBJID SVSTDTC VISITNUM</keys>
      <date>2013-03-03</date>
      <comment/>
      <studyversion>MDV.CDISC01.SDTMIG.3.1.2.SDTM.1.2</studyversion>
      <standard>SDTM-IG</standard>
      <standardversion>3.1.2</standardversion>
   </ItemGroupDef>
   <ItemRefItemDef>
      <table>SV</table>
      <column>STUDYID</column>
      <label>Study Identifier</label>
      <order>1</order>
      <length>7</length>
      <displayformat/>
      <significantdigits/>
      <xmldatatype>text</xmldatatype>
      <xmlcodelist/>
      <origin>Protocol</origin>
      <origindescription/>
      <role/>
      <algorithm/>
      <algorithmtype/>
      <formalexpression/>
      <formalexpressioncontext/>
      <comment/>
      <studyversion>MDV.CDISC01.SDTMIG.3.1.2.SDTM.1.2</studyversion>
      <standard>SDTM-IG</standard>
      <standardversion>3.1.2</standardversion>
   </ItemRefItemDef>
   <ItemRefItemDef>
      <table>SV</table>
      <column>DOMAIN</column>
      <label>Domain Abbreviation</label>
      <order>2</order>
      <length>2</length>
      <displayformat/>
      <significantdigits/>
      <xmldatatype>text</xmldatatype>
      <xmlcodelist>CL.SV.DOMAIN</xmlcodelist>
      <origin>Assigned</origin>
      <origindescription/>
      <role/>
      <algorithm/>
      <algorithmtype/>
      <formalexpression/>
      <formalexpressioncontext/>
      <comment/>
      <studyversion>MDV.CDISC01.SDTMIG.3.1.2.SDTM.1.2</studyversion>
      <standard>SDTM-IG</standard>
      <standardversion>3.1.2</standardversion>
   </ItemRefItemDef>
   <ItemRefItemDef>
      <table>SV</table>
      <column>USUBJID</column>
      <label>Unique Subject Identifier</label>
      <order>3</order>
      <length>14</length>
      <displayformat/>
      <significantdigits/>
      <xmldatatype>text</xmldatatype>
      <xmlcodelist/>
      <origin>Derived</origin>
      <origindescription/>
      <role/>
      <algorithm>Concatenation of STUDYID and SUBJID</algorithm>
      <algorithmtype>Computation</algorithmtype>
      <formalexpression>
          catx(".",STUDYID,SUBJID)
        </formalexpression>
      <formalexpressioncontext>SAS 9.0 or later, as part of a data step assignment or proc sql select and update statements.</formalexpressioncontext>
      <comment/>
      <studyversion>MDV.CDISC01.SDTMIG.3.1.2.SDTM.1.2</studyversion>
      <standard>SDTM-IG</standard>
      <standardversion>3.1.2</standardversion>
   </ItemRefItemDef>
   <ItemRefItemDef>
      <table>SV</table>
      <column>VISITNUM</column>
      <label>Visit Number</label>
      <order>4</order>
      <length>2</length>
      <displayformat/>
      <significantdigits/>
      <xmldatatype>integer</xmldatatype>
      <xmlcodelist/>
      <origin>Derived</origin>
      <origindescription/>
      <role/>
      <algorithm>Derived from visit-based subject-level domains</algorithm>
      <algorithmtype>Computation</algorithmtype>
      <formalexpression/>
      <formalexpressioncontext/>
      <comment/>
      <studyversion>MDV.CDISC01.SDTMIG.3.1.2.SDTM.1.2</studyversion>
      <standard>SDTM-IG</standard>
      <standardversion>3.1.2</standardversion>
   </ItemRefItemDef>
   <ItemRefItemDef>
      <table>SV</table>
      <column>VISIT</column>
      <label>Visit Name</label>
      <order>5</order>
      <length>8</length>
      <displayformat/>
      <significantdigits/>
      <xmldatatype>text</xmldatatype>
      <xmlcodelist/>
      <origin>Derived</origin>
      <origindescription/>
      <role/>
      <algorithm>Derived from visit-based subject-level domains</algorithm>
      <algorithmtype>Computation</algorithmtype>
      <formalexpression/>
      <formalexpressioncontext/>
      <comment/>
      <studyversion>MDV.CDISC01.SDTMIG.3.1.2.SDTM.1.2</studyversion>
      <standard>SDTM-IG</standard>
      <standardversion>3.1.2</standardversion>
   </ItemRefItemDef>
   <ItemRefItemDef>
      <table>SV</table>
      <column>VISITDY</column>
      <label>Planned Study Day of Visit</label>
      <order>6</order>
      <length>3</length>
      <displayformat/>
      <significantdigits/>
      <xmldatatype>integer</xmldatatype>
      <xmlcodelist/>
      <origin>Protocol</origin>
      <origindescription/>
      <role/>
      <algorithm/>
      <algorithmtype/>
      <formalexpression/>
      <formalexpressioncontext/>
      <comment/>
      <studyversion>MDV.CDISC01.SDTMIG.3.1.2.SDTM.1.2</studyversion>
      <standard>SDTM-IG</standard>
      <standardversion>3.1.2</standardversion>
   </ItemRefItemDef>
   <ItemRefItemDef>
      <table>SV</table>
      <column>SVSTDTC</column>
      <label>Start Date/Time of Visit</label>
      <order>7</order>
      <length/>
      <displayformat/>
      <significantdigits/>
      <xmldatatype>date</xmldatatype>
      <xmlcodelist/>
      <origin>Derived</origin>
      <origindescription/>
      <role/>
      <algorithm>Derived from visit-based subject-level domains</algorithm>
      <algorithmtype>Computation</algorithmtype>
      <formalexpression/>
      <formalexpressioncontext/>
      <comment/>
      <studyversion>MDV.CDISC01.SDTMIG.3.1.2.SDTM.1.2</studyversion>
      <standard>SDTM-IG</standard>
      <standardversion>3.1.2</standardversion>
   </ItemRefItemDef>
   <ItemRefItemDef>
      <table>SV</table>
      <column>SVENDTC</column>
      <label>End Date/Time of Visit</label>
      <order>8</order>
      <length/>
      <displayformat/>
      <significantdigits/>
      <xmldatatype>date</xmldatatype>
      <xmlcodelist/>
      <origin>Derived</origin>
      <origindescription/>
      <role/>
      <algorithm>SVENDTC = SVSTDTC</algorithm>
      <algorithmtype>Computation</algorithmtype>
      <formalexpression/>
      <formalexpressioncontext/>
      <comment/>
      <studyversion>MDV.CDISC01.SDTMIG.3.1.2.SDTM.1.2</studyversion>
      <standard>SDTM-IG</standard>
      <standardversion>3.1.2</standardversion>
   </ItemRefItemDef>
   <ItemRefItemDef>
      <table>SV</table>
      <column>SVSTDY</column>
      <label>Study Day of Start of Visit</label>
      <order>9</order>
      <length>3</length>
      <displayformat/>
      <significantdigits/>
      <xmldatatype>integer</xmldatatype>
      <xmlcodelist/>
      <origin>Derived</origin>
      <origindescription/>
      <role/>
      <algorithm>SVSTDY = SVSTDTC-RFSTDTC+1 if SVSTDTC is on or after RFSTDTC. SVSTDTC - RFSTDTC if SVSTDTC
precedes RFSTDTC.</algorithm>
      <algorithmtype>Computation</algorithmtype>
      <formalexpression/>
      <formalexpressioncontext/>
      <comment/>
      <studyversion>MDV.CDISC01.SDTMIG.3.1.2.SDTM.1.2</studyversion>
      <standard>SDTM-IG</standard>
      <standardversion>3.1.2</standardversion>
   </ItemRefItemDef>
   <ItemGroupDef>
      <table>CM</table>
      <label>Concomitant Medications</label>
      <order>9</order>
      <repeating>Yes</repeating>
      <isreferencedata>No</isreferencedata>
      <domain>CM</domain>
      <domaindescription/>
      <class>INTERVENTIONS</class>
      <xmlpath>cm.xpt</xmlpath>
      <xmltitle>cm.xpt</xmltitle>
      <structure>One record per recorded medication occurrence or constant-dosing interval per subject</structure>
      <purpose>Tabulation</purpose>
      <keys>STUDYID USUBJID CMSTDTC CMENDTC CMCAT CMTRT CMDOSTXT CMDOSU CMINDC CMDOSFRQ</keys>
      <date>2013-03-03</date>
      <comment/>
      <studyversion>MDV.CDISC01.SDTMIG.3.1.2.SDTM.1.2</studyversion>
      <standard>SDTM-IG</standard>
      <standardversion>3.1.2</standardversion>
   </ItemGroupDef>
   <ItemRefItemDef>
      <table>CM</table>
      <column>STUDYID</column>
      <label>Study Identifier</label>
      <order>1</order>
      <length>7</length>
      <displayformat/>
      <significantdigits/>
      <xmldatatype>text</xmldatatype>
      <xmlcodelist/>
      <origin>Protocol</origin>
      <origindescription/>
      <role/>
      <algorithm/>
      <algorithmtype/>
      <formalexpression/>
      <formalexpressioncontext/>
      <comment/>
      <studyversion>MDV.CDISC01.SDTMIG.3.1.2.SDTM.1.2</studyversion>
      <standard>SDTM-IG</standard>
      <standardversion>3.1.2</standardversion>
   </ItemRefItemDef>
   <ItemRefItemDef>
      <table>CM</table>
      <column>DOMAIN</column>
      <label>Domain Abbreviation</label>
      <order>2</order>
      <length>2</length>
      <displayformat/>
      <significantdigits/>
      <xmldatatype>text</xmldatatype>
      <xmlcodelist>CL.CM.DOMAIN</xmlcodelist>
      <origin>Assigned</origin>
      <origindescription/>
      <role/>
      <algorithm/>
      <algorithmtype/>
      <formalexpression/>
      <formalexpressioncontext/>
      <comment/>
      <studyversion>MDV.CDISC01.SDTMIG.3.1.2.SDTM.1.2</studyversion>
      <standard>SDTM-IG</standard>
      <standardversion>3.1.2</standardversion>
   </ItemRefItemDef>
   <ItemRefItemDef>
      <table>CM</table>
      <column>USUBJID</column>
      <label>Unique Subject Identifier</label>
      <order>3</order>
      <length>14</length>
      <displayformat/>
      <significantdigits/>
      <xmldatatype>text</xmldatatype>
      <xmlcodelist/>
      <origin>Derived</origin>
      <origindescription/>
      <role/>
      <algorithm>Concatenation of STUDYID and SUBJID</algorithm>
      <algorithmtype>Computation</algorithmtype>
      <formalexpression>
          catx(".",STUDYID,SUBJID)
        </formalexpression>
      <formalexpressioncontext>SAS 9.0 or later, as part of a data step assignment or proc sql select and update statements.</formalexpressioncontext>
      <comment/>
      <studyversion>MDV.CDISC01.SDTMIG.3.1.2.SDTM.1.2</studyversion>
      <standard>SDTM-IG</standard>
      <standardversion>3.1.2</standardversion>
   </ItemRefItemDef>
   <ItemRefItemDef>
      <table>CM</table>
      <column>CMSEQ</column>
      <label>Sequence Number</label>
      <order>4</order>
      <length>2</length>
      <displayformat/>
      <significantdigits/>
      <xmldatatype>integer</xmldatatype>
      <xmlcodelist/>
      <origin>Derived</origin>
      <origindescription/>
      <role/>
      <algorithm>Sequential number identifying records within each USUBJID in the domain.</algorithm>
      <algorithmtype>Computation</algorithmtype>
      <formalexpression/>
      <formalexpressioncontext/>
      <comment/>
      <studyversion>MDV.CDISC01.SDTMIG.3.1.2.SDTM.1.2</studyversion>
      <standard>SDTM-IG</standard>
      <standardversion>3.1.2</standardversion>
   </ItemRefItemDef>
   <ItemRefItemDef>
      <table>CM</table>
      <column>CMTRT</column>
      <label>Reported Name of Drug, Med, or Therapy</label>
      <order>5</order>
      <length>23</length>
      <displayformat/>
      <significantdigits/>
      <xmldatatype>text</xmldatatype>
      <xmlcodelist/>
      <origin>CRF</origin>
      <origindescription/>
      <role/>
      <algorithm/>
      <algorithmtype/>
      <formalexpression/>
      <formalexpressioncontext/>
      <comment/>
      <studyversion>MDV.CDISC01.SDTMIG.3.1.2.SDTM.1.2</studyversion>
      <standard>SDTM-IG</standard>
      <standardversion>3.1.2</standardversion>
   </ItemRefItemDef>
   <ItemRefItemDef>
      <table>CM</table>
      <column>CMMODIFY</column>
      <label>Modified Reported Name</label>
      <order>6</order>
      <length>23</length>
      <displayformat/>
      <significantdigits/>
      <xmldatatype>text</xmldatatype>
      <xmlcodelist/>
      <origin>Assigned</origin>
      <origindescription/>
      <role/>
      <algorithm/>
      <algorithmtype/>
      <formalexpression/>
      <formalexpressioncontext/>
      <comment/>
      <studyversion>MDV.CDISC01.SDTMIG.3.1.2.SDTM.1.2</studyversion>
      <standard>SDTM-IG</standard>
      <standardversion>3.1.2</standardversion>
   </ItemRefItemDef>
   <ItemRefItemDef>
      <table>CM</table>
      <column>CMDECOD</column>
      <label>Standardized Medication Name</label>
      <order>7</order>
      <length>30</length>
      <displayformat/>
      <significantdigits/>
      <xmldatatype>text</xmldatatype>
      <xmlcodelist>CL.DRUGDICT_F</xmlcodelist>
      <origin>Assigned</origin>
      <origindescription/>
      <role/>
      <algorithm/>
      <algorithmtype/>
      <formalexpression/>
      <formalexpressioncontext/>
      <comment/>
      <studyversion>MDV.CDISC01.SDTMIG.3.1.2.SDTM.1.2</studyversion>
      <standard>SDTM-IG</standard>
      <standardversion>3.1.2</standardversion>
   </ItemRefItemDef>
   <ItemRefItemDef>
      <table>CM</table>
      <column>CMCAT</column>
      <label>Category for Medication</label>
      <order>8</order>
      <length>36</length>
      <displayformat/>
      <significantdigits/>
      <xmldatatype>text</xmldatatype>
      <xmlcodelist>CL.CMCAT</xmlcodelist>
      <origin>CRF</origin>
      <origindescription/>
      <role/>
      <algorithm/>
      <algorithmtype/>
      <formalexpression/>
      <formalexpressioncontext/>
      <comment/>
      <studyversion>MDV.CDISC01.SDTMIG.3.1.2.SDTM.1.2</studyversion>
      <standard>SDTM-IG</standard>
      <standardversion>3.1.2</standardversion>
   </ItemRefItemDef>
   <ItemRefItemDef>
      <table>CM</table>
      <column>CMINDC</column>
      <label>Indication</label>
      <order>9</order>
      <length>27</length>
      <displayformat/>
      <significantdigits/>
      <xmldatatype>text</xmldatatype>
      <xmlcodelist/>
      <origin>CRF</origin>
      <origindescription/>
      <role/>
      <algorithm/>
      <algorithmtype/>
      <formalexpression/>
      <formalexpressioncontext/>
      <comment/>
      <studyversion>MDV.CDISC01.SDTMIG.3.1.2.SDTM.1.2</studyversion>
      <standard>SDTM-IG</standard>
      <standardversion>3.1.2</standardversion>
   </ItemRefItemDef>
   <ItemRefItemDef>
      <table>CM</table>
      <column>CMCLAS</column>
      <label>Medication Class</label>
      <order>10</order>
      <length>45</length>
      <displayformat/>
      <significantdigits/>
      <xmldatatype>text</xmldatatype>
      <xmlcodelist>CL.DRUGDICT_F</xmlcodelist>
      <origin>Assigned</origin>
      <origindescription/>
      <role/>
      <algorithm/>
      <algorithmtype/>
      <formalexpression/>
      <formalexpressioncontext/>
      <comment>Coded to ATC level 3 Term based on CMINDC</comment>
      <studyversion>MDV.CDISC01.SDTMIG.3.1.2.SDTM.1.2</studyversion>
      <standard>SDTM-IG</standard>
      <standardversion>3.1.2</standardversion>
   </ItemRefItemDef>
   <ItemRefItemDef>
      <table>CM</table>
      <column>CMCLASCD</column>
      <label>Medication Class Code</label>
      <order>11</order>
      <length>3</length>
      <displayformat/>
      <significantdigits/>
      <xmldatatype>text</xmldatatype>
      <xmlcodelist>CL.DRUGDICT_F</xmlcodelist>
      <origin>Assigned</origin>
      <origindescription/>
      <role/>
      <algorithm/>
      <algorithmtype/>
      <formalexpression/>
      <formalexpressioncontext/>
      <comment>Coded to ATC level 3 Code based on CMINDC</comment>
      <studyversion>MDV.CDISC01.SDTMIG.3.1.2.SDTM.1.2</studyversion>
      <standard>SDTM-IG</standard>
      <standardversion>3.1.2</standardversion>
   </ItemRefItemDef>
   <ItemRefItemDef>
      <table>CM</table>
      <column>CMDOSTXT</column>
      <label>Dose Description</label>
      <order>12</order>
      <length>4</length>
      <displayformat/>
      <significantdigits/>
      <xmldatatype>text</xmldatatype>
      <xmlcodelist/>
      <origin>CRF</origin>
      <origindescription/>
      <role/>
      <algorithm/>
      <algorithmtype/>
      <formalexpression/>
      <formalexpressioncontext/>
      <comment/>
      <studyversion>MDV.CDISC01.SDTMIG.3.1.2.SDTM.1.2</studyversion>
      <standard>SDTM-IG</standard>
      <standardversion>3.1.2</standardversion>
   </ItemRefItemDef>
   <ItemRefItemDef>
      <table>CM</table>
      <column>CMDOSU</column>
      <label>Dose Units</label>
      <order>13</order>
      <length>6</length>
      <displayformat/>
      <significantdigits/>
      <xmldatatype>text</xmldatatype>
      <xmlcodelist>CL.CMUNIT</xmlcodelist>
      <origin>CRF</origin>
      <origindescription/>
      <role/>
      <algorithm/>
      <algorithmtype/>
      <formalexpression/>
      <formalexpressioncontext/>
      <comment/>
      <studyversion>MDV.CDISC01.SDTMIG.3.1.2.SDTM.1.2</studyversion>
      <standard>SDTM-IG</standard>
      <standardversion>3.1.2</standardversion>
   </ItemRefItemDef>
   <ItemRefItemDef>
      <table>CM</table>
      <column>CMDOSFRQ</column>
      <label>Dosing Frequency per Interval</label>
      <order>14</order>
      <length>5</length>
      <displayformat/>
      <significantdigits/>
      <xmldatatype>text</xmldatatype>
      <xmlcodelist>CL.FREQ</xmlcodelist>
      <origin>CRF</origin>
      <origindescription/>
      <role/>
      <algorithm/>
      <algorithmtype/>
      <formalexpression/>
      <formalexpressioncontext/>
      <comment/>
      <studyversion>MDV.CDISC01.SDTMIG.3.1.2.SDTM.1.2</studyversion>
      <standard>SDTM-IG</standard>
      <standardversion>3.1.2</standardversion>
   </ItemRefItemDef>
   <ItemRefItemDef>
      <table>CM</table>
      <column>CMROUTE</column>
      <label>Route of Administration</label>
      <order>15</order>
      <length>12</length>
      <displayformat/>
      <significantdigits/>
      <xmldatatype>text</xmldatatype>
      <xmlcodelist>CL.ROUTE</xmlcodelist>
      <origin>CRF</origin>
      <origindescription/>
      <role/>
      <algorithm/>
      <algorithmtype/>
      <formalexpression/>
      <formalexpressioncontext/>
      <comment>Free text from CRF mapped to CDISC CT</comment>
      <studyversion>MDV.CDISC01.SDTMIG.3.1.2.SDTM.1.2</studyversion>
      <standard>SDTM-IG</standard>
      <standardversion>3.1.2</standardversion>
   </ItemRefItemDef>
   <ItemRefItemDef>
      <table>CM</table>
      <column>CMSTDTC</column>
      <label>Start Date/Time of Medication</label>
      <order>16</order>
      <length/>
      <displayformat/>
      <significantdigits/>
      <xmldatatype>date</xmldatatype>
      <xmlcodelist/>
      <origin>CRF</origin>
      <origindescription/>
      <role/>
      <algorithm/>
      <algorithmtype/>
      <formalexpression/>
      <formalexpressioncontext/>
      <comment/>
      <studyversion>MDV.CDISC01.SDTMIG.3.1.2.SDTM.1.2</studyversion>
      <standard>SDTM-IG</standard>
      <standardversion>3.1.2</standardversion>
   </ItemRefItemDef>
   <ItemRefItemDef>
      <table>CM</table>
      <column>CMENDTC</column>
      <label>End Date/Time of Medication</label>
      <order>17</order>
      <length/>
      <displayformat/>
      <significantdigits/>
      <xmldatatype>date</xmldatatype>
      <xmlcodelist/>
      <origin>CRF</origin>
      <origindescription/>
      <role/>
      <algorithm/>
      <algorithmtype/>
      <formalexpression/>
      <formalexpressioncontext/>
      <comment/>
      <studyversion>MDV.CDISC01.SDTMIG.3.1.2.SDTM.1.2</studyversion>
      <standard>SDTM-IG</standard>
      <standardversion>3.1.2</standardversion>
   </ItemRefItemDef>
   <ItemRefItemDef>
      <table>CM</table>
      <column>CMSTDY</column>
      <label>Study Day of Start of Medication</label>
      <order>18</order>
      <length>6</length>
      <displayformat/>
      <significantdigits/>
      <xmldatatype>integer</xmldatatype>
      <xmlcodelist/>
      <origin>Derived</origin>
      <origindescription/>
      <role/>
      <algorithm>CMSTDY = CMSTDTC - RFSTDTC +1 if CMSTDTC is on or after RFSTDTC. CMSTDTC - RFSTDTC if
CMSTDTC precedes RFSTDTC</algorithm>
      <algorithmtype>Computation</algorithmtype>
      <formalexpression/>
      <formalexpressioncontext/>
      <comment/>
      <studyversion>MDV.CDISC01.SDTMIG.3.1.2.SDTM.1.2</studyversion>
      <standard>SDTM-IG</standard>
      <standardversion>3.1.2</standardversion>
   </ItemRefItemDef>
   <ItemRefItemDef>
      <table>CM</table>
      <column>CMENDY</column>
      <label>Study Day of End of Medication</label>
      <order>19</order>
      <length>4</length>
      <displayformat/>
      <significantdigits/>
      <xmldatatype>integer</xmldatatype>
      <xmlcodelist/>
      <origin>Derived</origin>
      <origindescription/>
      <role/>
      <algorithm>CMENDY = CMENDTC - RFSTDTC +1 if CMENDTC is on or after RFSTDTC. CMENDTC - RFSTDTC if
CMENDTC precedes RFSTDTC</algorithm>
      <algorithmtype>Computation</algorithmtype>
      <formalexpression/>
      <formalexpressioncontext/>
      <comment/>
      <studyversion>MDV.CDISC01.SDTMIG.3.1.2.SDTM.1.2</studyversion>
      <standard>SDTM-IG</standard>
      <standardversion>3.1.2</standardversion>
   </ItemRefItemDef>
   <ItemRefItemDef>
      <table>CM</table>
      <column>CMENRF</column>
      <label>End Relative to Reference Period</label>
      <order>20</order>
      <length>6</length>
      <displayformat/>
      <significantdigits/>
      <xmldatatype>text</xmldatatype>
      <xmlcodelist>CL.CMENRF</xmlcodelist>
      <origin>CRF</origin>
      <origindescription/>
      <role/>
      <algorithm/>
      <algorithmtype/>
      <formalexpression/>
      <formalexpressioncontext/>
      <comment/>
      <studyversion>MDV.CDISC01.SDTMIG.3.1.2.SDTM.1.2</studyversion>
      <standard>SDTM-IG</standard>
      <standardversion>3.1.2</standardversion>
   </ItemRefItemDef>
   <ItemGroupDef>
      <table>EX</table>
      <label>Exposure</label>
      <order>10</order>
      <repeating>Yes</repeating>
      <isreferencedata>No</isreferencedata>
      <domain>EX</domain>
      <domaindescription/>
      <class>INTERVENTIONS</class>
      <xmlpath>ex.xpt</xmlpath>
      <xmltitle>ex.xpt</xmltitle>
      <structure>One record per constant dosing interval per subject</structure>
      <purpose>Tabulation</purpose>
      <keys>STUDYID USUBJID EXSTDTC EXENDTC EXTRT EXDOSE</keys>
      <date>2013-03-03</date>
      <comment/>
      <studyversion>MDV.CDISC01.SDTMIG.3.1.2.SDTM.1.2</studyversion>
      <standard>SDTM-IG</standard>
      <standardversion>3.1.2</standardversion>
   </ItemGroupDef>
   <ItemRefItemDef>
      <table>EX</table>
      <column>STUDYID</column>
      <label>Study Identifier</label>
      <order>1</order>
      <length>7</length>
      <displayformat/>
      <significantdigits/>
      <xmldatatype>text</xmldatatype>
      <xmlcodelist/>
      <origin>Protocol</origin>
      <origindescription/>
      <role/>
      <algorithm/>
      <algorithmtype/>
      <formalexpression/>
      <formalexpressioncontext/>
      <comment/>
      <studyversion>MDV.CDISC01.SDTMIG.3.1.2.SDTM.1.2</studyversion>
      <standard>SDTM-IG</standard>
      <standardversion>3.1.2</standardversion>
   </ItemRefItemDef>
   <ItemRefItemDef>
      <table>EX</table>
      <column>DOMAIN</column>
      <label>Domain Abbreviation</label>
      <order>2</order>
      <length>2</length>
      <displayformat/>
      <significantdigits/>
      <xmldatatype>text</xmldatatype>
      <xmlcodelist>CL.EX.DOMAIN</xmlcodelist>
      <origin>Assigned</origin>
      <origindescription/>
      <role/>
      <algorithm/>
      <algorithmtype/>
      <formalexpression/>
      <formalexpressioncontext/>
      <comment/>
      <studyversion>MDV.CDISC01.SDTMIG.3.1.2.SDTM.1.2</studyversion>
      <standard>SDTM-IG</standard>
      <standardversion>3.1.2</standardversion>
   </ItemRefItemDef>
   <ItemRefItemDef>
      <table>EX</table>
      <column>USUBJID</column>
      <label>Unique Subject Identifier</label>
      <order>3</order>
      <length>14</length>
      <displayformat/>
      <significantdigits/>
      <xmldatatype>text</xmldatatype>
      <xmlcodelist/>
      <origin>Derived</origin>
      <origindescription/>
      <role/>
      <algorithm>Concatenation of STUDYID and SUBJID</algorithm>
      <algorithmtype>Computation</algorithmtype>
      <formalexpression>
          catx(".",STUDYID,SUBJID)
        </formalexpression>
      <formalexpressioncontext>SAS 9.0 or later, as part of a data step assignment or proc sql select and update statements.</formalexpressioncontext>
      <comment/>
      <studyversion>MDV.CDISC01.SDTMIG.3.1.2.SDTM.1.2</studyversion>
      <standard>SDTM-IG</standard>
      <standardversion>3.1.2</standardversion>
   </ItemRefItemDef>
   <ItemRefItemDef>
      <table>EX</table>
      <column>EXSEQ</column>
      <label>Sequence Number</label>
      <order>4</order>
      <length>1</length>
      <displayformat/>
      <significantdigits/>
      <xmldatatype>integer</xmldatatype>
      <xmlcodelist/>
      <origin>Derived</origin>
      <origindescription/>
      <role/>
      <algorithm>Sequential number identifying records within each USUBJID in the domain.</algorithm>
      <algorithmtype>Computation</algorithmtype>
      <formalexpression/>
      <formalexpressioncontext/>
      <comment/>
      <studyversion>MDV.CDISC01.SDTMIG.3.1.2.SDTM.1.2</studyversion>
      <standard>SDTM-IG</standard>
      <standardversion>3.1.2</standardversion>
   </ItemRefItemDef>
   <ItemRefItemDef>
      <table>EX</table>
      <column>EXTRT</column>
      <label>Name of Actual Treatment</label>
      <order>5</order>
      <length>20</length>
      <displayformat/>
      <significantdigits/>
      <xmldatatype>text</xmldatatype>
      <xmlcodelist>CL.EXTRT</xmlcodelist>
      <origin>Derived</origin>
      <origindescription/>
      <role/>
      <algorithm>Derived from ARM, ARMCD</algorithm>
      <algorithmtype>Computation</algorithmtype>
      <formalexpression/>
      <formalexpressioncontext/>
      <comment/>
      <studyversion>MDV.CDISC01.SDTMIG.3.1.2.SDTM.1.2</studyversion>
      <standard>SDTM-IG</standard>
      <standardversion>3.1.2</standardversion>
   </ItemRefItemDef>
   <ItemRefItemDef>
      <table>EX</table>
      <column>EXDOSE</column>
      <label>Dose per Administration</label>
      <order>6</order>
      <length>2</length>
      <displayformat/>
      <significantdigits/>
      <xmldatatype>integer</xmldatatype>
      <xmlcodelist/>
      <origin>Derived</origin>
      <origindescription/>
      <role/>
      <algorithm>If ARMCD=WONDER10 then EXDOSE = Number of Tablets per Day (QVAL where QNAM=SMNO) * 10. If
ARMCD=WONDER20 then EXDOSE = Number of Tablets per Day (QVAL where QNAM=SMNO) * 20. If ARMCD=PLACEBO then EXDOSE = 0.
          </algorithm>
      <algorithmtype>Computation</algorithmtype>
      <formalexpression/>
      <formalexpressioncontext/>
      <comment/>
      <studyversion>MDV.CDISC01.SDTMIG.3.1.2.SDTM.1.2</studyversion>
      <standard>SDTM-IG</standard>
      <standardversion>3.1.2</standardversion>
   </ItemRefItemDef>
   <ItemRefItemDef>
      <table>EX</table>
      <column>EXDOSU</column>
      <label>Dose Units</label>
      <order>7</order>
      <length>2</length>
      <displayformat/>
      <significantdigits/>
      <xmldatatype>text</xmldatatype>
      <xmlcodelist/>
      <origin>Derived</origin>
      <origindescription/>
      <role/>
      <algorithm>Derived from ARM, ARMCD - equal to mg</algorithm>
      <algorithmtype>Computation</algorithmtype>
      <formalexpression/>
      <formalexpressioncontext/>
      <comment/>
      <studyversion>MDV.CDISC01.SDTMIG.3.1.2.SDTM.1.2</studyversion>
      <standard>SDTM-IG</standard>
      <standardversion>3.1.2</standardversion>
   </ItemRefItemDef>
   <ItemRefItemDef>
      <table>EX</table>
      <column>EXDOSFRM</column>
      <label>Dose Form</label>
      <order>8</order>
      <length>7</length>
      <displayformat/>
      <significantdigits/>
      <xmldatatype>text</xmldatatype>
      <xmlcodelist>CL.FRM</xmlcodelist>
      <origin>CRF</origin>
      <origindescription/>
      <role/>
      <algorithm/>
      <algorithmtype/>
      <formalexpression/>
      <formalexpressioncontext/>
      <comment/>
      <studyversion>MDV.CDISC01.SDTMIG.3.1.2.SDTM.1.2</studyversion>
      <standard>SDTM-IG</standard>
      <standardversion>3.1.2</standardversion>
   </ItemRefItemDef>
   <ItemRefItemDef>
      <table>EX</table>
      <column>EXSTDTC</column>
      <label>Start Date/Time of Treatment</label>
      <order>9</order>
      <length/>
      <displayformat/>
      <significantdigits/>
      <xmldatatype>date</xmldatatype>
      <xmlcodelist/>
      <origin>CRF</origin>
      <origindescription/>
      <role/>
      <algorithm/>
      <algorithmtype/>
      <formalexpression/>
      <formalexpressioncontext/>
      <comment/>
      <studyversion>MDV.CDISC01.SDTMIG.3.1.2.SDTM.1.2</studyversion>
      <standard>SDTM-IG</standard>
      <standardversion>3.1.2</standardversion>
   </ItemRefItemDef>
   <ItemRefItemDef>
      <table>EX</table>
      <column>EXENDTC</column>
      <label>End Date/Time of Treatment</label>
      <order>10</order>
      <length/>
      <displayformat/>
      <significantdigits/>
      <xmldatatype>date</xmldatatype>
      <xmlcodelist/>
      <origin>CRF</origin>
      <origindescription/>
      <role/>
      <algorithm/>
      <algorithmtype/>
      <formalexpression/>
      <formalexpressioncontext/>
      <comment/>
      <studyversion>MDV.CDISC01.SDTMIG.3.1.2.SDTM.1.2</studyversion>
      <standard>SDTM-IG</standard>
      <standardversion>3.1.2</standardversion>
   </ItemRefItemDef>
   <ItemRefItemDef>
      <table>EX</table>
      <column>EXSTDY</column>
      <label>Study Day of Start of Treatment</label>
      <order>11</order>
      <length>2</length>
      <displayformat/>
      <significantdigits/>
      <xmldatatype>integer</xmldatatype>
      <xmlcodelist/>
      <origin>Derived</origin>
      <origindescription/>
      <role/>
      <algorithm>EXSTDY = EXSTDTC - RFSTDTC+1 if EXSTDTC is on or after RFSTDTC. EXSTDTC - RFSTDTC if
EXSTDTC precedes RFSTDTC.</algorithm>
      <algorithmtype>Computation</algorithmtype>
      <formalexpression/>
      <formalexpressioncontext/>
      <comment/>
      <studyversion>MDV.CDISC01.SDTMIG.3.1.2.SDTM.1.2</studyversion>
      <standard>SDTM-IG</standard>
      <standardversion>3.1.2</standardversion>
   </ItemRefItemDef>
   <ItemRefItemDef>
      <table>EX</table>
      <column>EXENDY</column>
      <label>Study Day of End of Treatment</label>
      <order>12</order>
      <length>2</length>
      <displayformat/>
      <significantdigits/>
      <xmldatatype>integer</xmldatatype>
      <xmlcodelist/>
      <origin>Derived</origin>
      <origindescription/>
      <role/>
      <algorithm>EXENDY = EXENDTC-RFSTDTC+1 if EXENDTC is on or after RFSTDTC. EXENDTC - RFSTDTC if EXENDTC
precedes RFSTDTC.</algorithm>
      <algorithmtype>Computation</algorithmtype>
      <formalexpression/>
      <formalexpressioncontext/>
      <comment/>
      <studyversion>MDV.CDISC01.SDTMIG.3.1.2.SDTM.1.2</studyversion>
      <standard>SDTM-IG</standard>
      <standardversion>3.1.2</standardversion>
   </ItemRefItemDef>
   <ItemGroupDef>
      <table>AE</table>
      <label>Adverse Events</label>
      <order>11</order>
      <repeating>Yes</repeating>
      <isreferencedata>No</isreferencedata>
      <domain>AE</domain>
      <domaindescription/>
      <class>EVENTS</class>
      <xmlpath>ae.xpt</xmlpath>
      <xmltitle>ae.xpt</xmltitle>
      <structure>One record per adverse event per subject</structure>
      <purpose>Tabulation</purpose>
      <keys>STUDYID USUBJID AEDECOD AESTDTC</keys>
      <date>2013-03-03</date>
      <comment/>
      <studyversion>MDV.CDISC01.SDTMIG.3.1.2.SDTM.1.2</studyversion>
      <standard>SDTM-IG</standard>
      <standardversion>3.1.2</standardversion>
   </ItemGroupDef>
   <ItemRefItemDef>
      <table>AE</table>
      <column>STUDYID</column>
      <label>Study Identifier</label>
      <order>1</order>
      <length>7</length>
      <displayformat/>
      <significantdigits/>
      <xmldatatype>text</xmldatatype>
      <xmlcodelist/>
      <origin>Protocol</origin>
      <origindescription/>
      <role/>
      <algorithm/>
      <algorithmtype/>
      <formalexpression/>
      <formalexpressioncontext/>
      <comment/>
      <studyversion>MDV.CDISC01.SDTMIG.3.1.2.SDTM.1.2</studyversion>
      <standard>SDTM-IG</standard>
      <standardversion>3.1.2</standardversion>
   </ItemRefItemDef>
   <ItemRefItemDef>
      <table>AE</table>
      <column>DOMAIN</column>
      <label>Domain Abbreviation</label>
      <order>2</order>
      <length>2</length>
      <displayformat/>
      <significantdigits/>
      <xmldatatype>text</xmldatatype>
      <xmlcodelist>CL.AE.DOMAIN</xmlcodelist>
      <origin>Assigned</origin>
      <origindescription/>
      <role/>
      <algorithm/>
      <algorithmtype/>
      <formalexpression/>
      <formalexpressioncontext/>
      <comment/>
      <studyversion>MDV.CDISC01.SDTMIG.3.1.2.SDTM.1.2</studyversion>
      <standard>SDTM-IG</standard>
      <standardversion>3.1.2</standardversion>
   </ItemRefItemDef>
   <ItemRefItemDef>
      <table>AE</table>
      <column>USUBJID</column>
      <label>Unique Subject Identifier</label>
      <order>3</order>
      <length>14</length>
      <displayformat/>
      <significantdigits/>
      <xmldatatype>text</xmldatatype>
      <xmlcodelist/>
      <origin>Derived</origin>
      <origindescription/>
      <role/>
      <algorithm>Concatenation of STUDYID and SUBJID</algorithm>
      <algorithmtype>Computation</algorithmtype>
      <formalexpression>
          catx(".",STUDYID,SUBJID)
        </formalexpression>
      <formalexpressioncontext>SAS 9.0 or later, as part of a data step assignment or proc sql select and update statements.</formalexpressioncontext>
      <comment/>
      <studyversion>MDV.CDISC01.SDTMIG.3.1.2.SDTM.1.2</studyversion>
      <standard>SDTM-IG</standard>
      <standardversion>3.1.2</standardversion>
   </ItemRefItemDef>
   <ItemRefItemDef>
      <table>AE</table>
      <column>AESEQ</column>
      <label>Sequence Number</label>
      <order>4</order>
      <length>1</length>
      <displayformat/>
      <significantdigits/>
      <xmldatatype>integer</xmldatatype>
      <xmlcodelist/>
      <origin>Derived</origin>
      <origindescription/>
      <role/>
      <algorithm>Sequential number identifying records within each USUBJID in the domain.</algorithm>
      <algorithmtype>Computation</algorithmtype>
      <formalexpression/>
      <formalexpressioncontext/>
      <comment/>
      <studyversion>MDV.CDISC01.SDTMIG.3.1.2.SDTM.1.2</studyversion>
      <standard>SDTM-IG</standard>
      <standardversion>3.1.2</standardversion>
   </ItemRefItemDef>
   <ItemRefItemDef>
      <table>AE</table>
      <column>AESPID</column>
      <label>Sponsor-Defined Identifier</label>
      <order>5</order>
      <length>4</length>
      <displayformat/>
      <significantdigits/>
      <xmldatatype>text</xmldatatype>
      <xmlcodelist/>
      <origin>CRF</origin>
      <origindescription/>
      <role/>
      <algorithm/>
      <algorithmtype/>
      <formalexpression/>
      <formalexpressioncontext/>
      <comment/>
      <studyversion>MDV.CDISC01.SDTMIG.3.1.2.SDTM.1.2</studyversion>
      <standard>SDTM-IG</standard>
      <standardversion>3.1.2</standardversion>
   </ItemRefItemDef>
   <ItemRefItemDef>
      <table>AE</table>
      <column>AETERM</column>
      <label>Reported Term for the Adverse Event</label>
      <order>6</order>
      <length>25</length>
      <displayformat/>
      <significantdigits/>
      <xmldatatype>text</xmldatatype>
      <xmlcodelist/>
      <origin>CRF</origin>
      <origindescription/>
      <role/>
      <algorithm/>
      <algorithmtype/>
      <formalexpression/>
      <formalexpressioncontext/>
      <comment/>
      <studyversion>MDV.CDISC01.SDTMIG.3.1.2.SDTM.1.2</studyversion>
      <standard>SDTM-IG</standard>
      <standardversion>3.1.2</standardversion>
   </ItemRefItemDef>
   <ItemRefItemDef>
      <table>AE</table>
      <column>AEMODIFY</column>
      <label>Modified Reported Term</label>
      <order>7</order>
      <length>9</length>
      <displayformat/>
      <significantdigits/>
      <xmldatatype>text</xmldatatype>
      <xmlcodelist/>
      <origin>Assigned</origin>
      <origindescription/>
      <role/>
      <algorithm/>
      <algorithmtype/>
      <formalexpression/>
      <formalexpressioncontext/>
      <comment/>
      <studyversion>MDV.CDISC01.SDTMIG.3.1.2.SDTM.1.2</studyversion>
      <standard>SDTM-IG</standard>
      <standardversion>3.1.2</standardversion>
   </ItemRefItemDef>
   <ItemRefItemDef>
      <table>AE</table>
      <column>AEDECOD</column>
      <label>Dictionary-Derived Term</label>
      <order>8</order>
      <length>18</length>
      <displayformat/>
      <significantdigits/>
      <xmldatatype>text</xmldatatype>
      <xmlcodelist>CL.AEDICT_F</xmlcodelist>
      <origin>Assigned</origin>
      <origindescription/>
      <role/>
      <algorithm/>
      <algorithmtype/>
      <formalexpression/>
      <formalexpressioncontext/>
      <comment/>
      <studyversion>MDV.CDISC01.SDTMIG.3.1.2.SDTM.1.2</studyversion>
      <standard>SDTM-IG</standard>
      <standardversion>3.1.2</standardversion>
   </ItemRefItemDef>
   <ItemRefItemDef>
      <table>AE</table>
      <column>AEBODSYS</column>
      <label>Body System or Organ Class</label>
      <order>9</order>
      <length>52</length>
      <displayformat/>
      <significantdigits/>
      <xmldatatype>text</xmldatatype>
      <xmlcodelist>CL.AEDICT_F</xmlcodelist>
      <origin>Assigned</origin>
      <origindescription/>
      <role/>
      <algorithm/>
      <algorithmtype/>
      <formalexpression/>
      <formalexpressioncontext/>
      <comment/>
      <studyversion>MDV.CDISC01.SDTMIG.3.1.2.SDTM.1.2</studyversion>
      <standard>SDTM-IG</standard>
      <standardversion>3.1.2</standardversion>
   </ItemRefItemDef>
   <ItemRefItemDef>
      <table>AE</table>
      <column>AESEV</column>
      <label>Severity/Intensity</label>
      <order>10</order>
      <length>8</length>
      <displayformat/>
      <significantdigits/>
      <xmldatatype>text</xmldatatype>
      <xmlcodelist>CL.AESEV</xmlcodelist>
      <origin>CRF</origin>
      <origindescription/>
      <role/>
      <algorithm/>
      <algorithmtype/>
      <formalexpression/>
      <formalexpressioncontext/>
      <comment/>
      <studyversion>MDV.CDISC01.SDTMIG.3.1.2.SDTM.1.2</studyversion>
      <standard>SDTM-IG</standard>
      <standardversion>3.1.2</standardversion>
   </ItemRefItemDef>
   <ItemRefItemDef>
      <table>AE</table>
      <column>AESER</column>
      <label>Serious Event</label>
      <order>11</order>
      <length>1</length>
      <displayformat/>
      <significantdigits/>
      <xmldatatype>text</xmldatatype>
      <xmlcodelist>CL.NY</xmlcodelist>
      <origin>CRF</origin>
      <origindescription/>
      <role/>
      <algorithm/>
      <algorithmtype/>
      <formalexpression/>
      <formalexpressioncontext/>
      <comment/>
      <studyversion>MDV.CDISC01.SDTMIG.3.1.2.SDTM.1.2</studyversion>
      <standard>SDTM-IG</standard>
      <standardversion>3.1.2</standardversion>
   </ItemRefItemDef>
   <ItemRefItemDef>
      <table>AE</table>
      <column>AEACN</column>
      <label>Action Taken with Study Treatment</label>
      <order>12</order>
      <length>30</length>
      <displayformat/>
      <significantdigits/>
      <xmldatatype>text</xmldatatype>
      <xmlcodelist>CL.ACN</xmlcodelist>
      <origin>CRF</origin>
      <origindescription/>
      <role/>
      <algorithm/>
      <algorithmtype/>
      <formalexpression/>
      <formalexpressioncontext/>
      <comment/>
      <studyversion>MDV.CDISC01.SDTMIG.3.1.2.SDTM.1.2</studyversion>
      <standard>SDTM-IG</standard>
      <standardversion>3.1.2</standardversion>
   </ItemRefItemDef>
   <ItemRefItemDef>
      <table>AE</table>
      <column>AEREL</column>
      <label>Causality</label>
      <order>13</order>
      <length>16</length>
      <displayformat/>
      <significantdigits/>
      <xmldatatype>text</xmldatatype>
      <xmlcodelist>CL.AEREL</xmlcodelist>
      <origin>CRF</origin>
      <origindescription/>
      <role/>
      <algorithm/>
      <algorithmtype/>
      <formalexpression/>
      <formalexpressioncontext/>
      <comment/>
      <studyversion>MDV.CDISC01.SDTMIG.3.1.2.SDTM.1.2</studyversion>
      <standard>SDTM-IG</standard>
      <standardversion>3.1.2</standardversion>
   </ItemRefItemDef>
   <ItemRefItemDef>
      <table>AE</table>
      <column>AESTDTC</column>
      <label>Start Date/Time of Adverse Event</label>
      <order>14</order>
      <length/>
      <displayformat/>
      <significantdigits/>
      <xmldatatype>date</xmldatatype>
      <xmlcodelist/>
      <origin>CRF</origin>
      <origindescription/>
      <role/>
      <algorithm/>
      <algorithmtype/>
      <formalexpression/>
      <formalexpressioncontext/>
      <comment/>
      <studyversion>MDV.CDISC01.SDTMIG.3.1.2.SDTM.1.2</studyversion>
      <standard>SDTM-IG</standard>
      <standardversion>3.1.2</standardversion>
   </ItemRefItemDef>
   <ItemRefItemDef>
      <table>AE</table>
      <column>AEENDTC</column>
      <label>End Date/Time of Adverse Event</label>
      <order>15</order>
      <length/>
      <displayformat/>
      <significantdigits/>
      <xmldatatype>date</xmldatatype>
      <xmlcodelist/>
      <origin>CRF</origin>
      <origindescription/>
      <role/>
      <algorithm/>
      <algorithmtype/>
      <formalexpression/>
      <formalexpressioncontext/>
      <comment/>
      <studyversion>MDV.CDISC01.SDTMIG.3.1.2.SDTM.1.2</studyversion>
      <standard>SDTM-IG</standard>
      <standardversion>3.1.2</standardversion>
   </ItemRefItemDef>
   <ItemRefItemDef>
      <table>AE</table>
      <column>AESTDY</column>
      <label>Study Day of Start of Adverse Event</label>
      <order>16</order>
      <length>3</length>
      <displayformat/>
      <significantdigits/>
      <xmldatatype>integer</xmldatatype>
      <xmlcodelist/>
      <origin>Derived</origin>
      <origindescription/>
      <role/>
      <algorithm>AESTDY = AESTDTC - RFSTDTC+1 if AESTDTC is on or after RFSTDTC. AESTDTC - RFSTDTC if
AESTDTC precedes RFSTDTC</algorithm>
      <algorithmtype>Computation</algorithmtype>
      <formalexpression/>
      <formalexpressioncontext/>
      <comment/>
      <studyversion>MDV.CDISC01.SDTMIG.3.1.2.SDTM.1.2</studyversion>
      <standard>SDTM-IG</standard>
      <standardversion>3.1.2</standardversion>
   </ItemRefItemDef>
   <ItemRefItemDef>
      <table>AE</table>
      <column>AEENDY</column>
      <label>Study Day of End of Adverse Event</label>
      <order>17</order>
      <length>3</length>
      <displayformat/>
      <significantdigits/>
      <xmldatatype>integer</xmldatatype>
      <xmlcodelist/>
      <origin>Derived</origin>
      <origindescription/>
      <role/>
      <algorithm>AEENDY = AEENDTC -RFSTDTC+1 if AEENDTC is on or after RFSTDTC. AEENDTC - RFSTDTC if AEENDTC
precedes RFSTDTC</algorithm>
      <algorithmtype>Computation</algorithmtype>
      <formalexpression/>
      <formalexpressioncontext/>
      <comment/>
      <studyversion>MDV.CDISC01.SDTMIG.3.1.2.SDTM.1.2</studyversion>
      <standard>SDTM-IG</standard>
      <standardversion>3.1.2</standardversion>
   </ItemRefItemDef>
   <ItemRefItemDef>
      <table>AE</table>
      <column>AEENRF</column>
      <label>End Relative to Reference Period</label>
      <order>18</order>
      <length>5</length>
      <displayformat/>
      <significantdigits/>
      <xmldatatype>text</xmldatatype>
      <xmlcodelist>CL.AEENRF</xmlcodelist>
      <origin>CRF</origin>
      <origindescription/>
      <role/>
      <algorithm/>
      <algorithmtype/>
      <formalexpression/>
      <formalexpressioncontext/>
      <comment/>
      <studyversion>MDV.CDISC01.SDTMIG.3.1.2.SDTM.1.2</studyversion>
      <standard>SDTM-IG</standard>
      <standardversion>3.1.2</standardversion>
   </ItemRefItemDef>
   <ItemGroupDef>
      <table>DS</table>
      <label>Disposition</label>
      <order>12</order>
      <repeating>Yes</repeating>
      <isreferencedata>No</isreferencedata>
      <domain>DS</domain>
      <domaindescription/>
      <class>EVENTS</class>
      <xmlpath>ds.xpt</xmlpath>
      <xmltitle>ds.xpt</xmltitle>
      <structure>One record per disposition status or protocol milestone per subject</structure>
      <purpose>Tabulation</purpose>
      <keys>STUDYID USUBJID DSSTDY DSSTDTC DSCAT DSDECOD</keys>
      <date>2013-03-03</date>
      <comment/>
      <studyversion>MDV.CDISC01.SDTMIG.3.1.2.SDTM.1.2</studyversion>
      <standard>SDTM-IG</standard>
      <standardversion>3.1.2</standardversion>
   </ItemGroupDef>
   <ItemRefItemDef>
      <table>DS</table>
      <column>STUDYID</column>
      <label>Study Identifier</label>
      <order>1</order>
      <length>7</length>
      <displayformat/>
      <significantdigits/>
      <xmldatatype>text</xmldatatype>
      <xmlcodelist/>
      <origin>Protocol</origin>
      <origindescription/>
      <role/>
      <algorithm/>
      <algorithmtype/>
      <formalexpression/>
      <formalexpressioncontext/>
      <comment/>
      <studyversion>MDV.CDISC01.SDTMIG.3.1.2.SDTM.1.2</studyversion>
      <standard>SDTM-IG</standard>
      <standardversion>3.1.2</standardversion>
   </ItemRefItemDef>
   <ItemRefItemDef>
      <table>DS</table>
      <column>DOMAIN</column>
      <label>Domain Abbreviation</label>
      <order>2</order>
      <length>2</length>
      <displayformat/>
      <significantdigits/>
      <xmldatatype>text</xmldatatype>
      <xmlcodelist>CL.DS.DOMAIN</xmlcodelist>
      <origin>Assigned</origin>
      <origindescription/>
      <role/>
      <algorithm/>
      <algorithmtype/>
      <formalexpression/>
      <formalexpressioncontext/>
      <comment/>
      <studyversion>MDV.CDISC01.SDTMIG.3.1.2.SDTM.1.2</studyversion>
      <standard>SDTM-IG</standard>
      <standardversion>3.1.2</standardversion>
   </ItemRefItemDef>
   <ItemRefItemDef>
      <table>DS</table>
      <column>USUBJID</column>
      <label>Unique Subject Identifier</label>
      <order>3</order>
      <length>14</length>
      <displayformat/>
      <significantdigits/>
      <xmldatatype>text</xmldatatype>
      <xmlcodelist/>
      <origin>Derived</origin>
      <origindescription/>
      <role/>
      <algorithm>Concatenation of STUDYID and SUBJID</algorithm>
      <algorithmtype>Computation</algorithmtype>
      <formalexpression>
          catx(".",STUDYID,SUBJID)
        </formalexpression>
      <formalexpressioncontext>SAS 9.0 or later, as part of a data step assignment or proc sql select and update statements.</formalexpressioncontext>
      <comment/>
      <studyversion>MDV.CDISC01.SDTMIG.3.1.2.SDTM.1.2</studyversion>
      <standard>SDTM-IG</standard>
      <standardversion>3.1.2</standardversion>
   </ItemRefItemDef>
   <ItemRefItemDef>
      <table>DS</table>
      <column>DSSEQ</column>
      <label>Sequence Number</label>
      <order>4</order>
      <length>1</length>
      <displayformat/>
      <significantdigits/>
      <xmldatatype>integer</xmldatatype>
      <xmlcodelist/>
      <origin>Derived</origin>
      <origindescription/>
      <role/>
      <algorithm>Sequential number identifying records within each USUBJID in the domain.</algorithm>
      <algorithmtype>Computation</algorithmtype>
      <formalexpression/>
      <formalexpressioncontext/>
      <comment/>
      <studyversion>MDV.CDISC01.SDTMIG.3.1.2.SDTM.1.2</studyversion>
      <standard>SDTM-IG</standard>
      <standardversion>3.1.2</standardversion>
   </ItemRefItemDef>
   <ItemRefItemDef>
      <table>DS</table>
      <column>DSTERM</column>
      <label>Reported Term for the Disposition Event</label>
      <order>5</order>
      <length>34</length>
      <displayformat/>
      <significantdigits/>
      <xmldatatype>text</xmldatatype>
      <xmlcodelist>CL.TREASFF</xmlcodelist>
      <origin>CRF</origin>
      <origindescription/>
      <role/>
      <algorithm/>
      <algorithmtype/>
      <formalexpression/>
      <formalexpressioncontext/>
      <comment/>
      <studyversion>MDV.CDISC01.SDTMIG.3.1.2.SDTM.1.2</studyversion>
      <standard>SDTM-IG</standard>
      <standardversion>3.1.2</standardversion>
   </ItemRefItemDef>
   <ItemRefItemDef>
      <table>DS</table>
      <column>DSDECOD</column>
      <label>Standardized Disposition Term</label>
      <order>6</order>
      <length>21</length>
      <displayformat/>
      <significantdigits/>
      <xmldatatype>text</xmldatatype>
      <xmlcodelist>CL.NCOMPLT</xmlcodelist>
      <origin>CRF</origin>
      <origindescription/>
      <role/>
      <algorithm/>
      <algorithmtype/>
      <formalexpression/>
      <formalexpressioncontext/>
      <comment>CRF controlled terminology was mapped to match CDISC controlled terminology.
          </comment>
      <studyversion>MDV.CDISC01.SDTMIG.3.1.2.SDTM.1.2</studyversion>
      <standard>SDTM-IG</standard>
      <standardversion>3.1.2</standardversion>
   </ItemRefItemDef>
   <ItemRefItemDef>
      <table>DS</table>
      <column>DSCAT</column>
      <label>Category for Disposition Event</label>
      <order>7</order>
      <length>18</length>
      <displayformat/>
      <significantdigits/>
      <xmldatatype>text</xmldatatype>
      <xmlcodelist>CL.DSCAT</xmlcodelist>
      <origin>Assigned</origin>
      <origindescription/>
      <role/>
      <algorithm/>
      <algorithmtype/>
      <formalexpression/>
      <formalexpressioncontext/>
      <comment/>
      <studyversion>MDV.CDISC01.SDTMIG.3.1.2.SDTM.1.2</studyversion>
      <standard>SDTM-IG</standard>
      <standardversion>3.1.2</standardversion>
   </ItemRefItemDef>
   <ItemRefItemDef>
      <table>DS</table>
      <column>EPOCH</column>
      <label>Epoch</label>
      <order>8</order>
      <length>9</length>
      <displayformat/>
      <significantdigits/>
      <xmldatatype>text</xmldatatype>
      <xmlcodelist>CL.EPOCH</xmlcodelist>
      <origin>Assigned</origin>
      <origindescription/>
      <role/>
      <algorithm/>
      <algorithmtype/>
      <formalexpression/>
      <formalexpressioncontext/>
      <comment/>
      <studyversion>MDV.CDISC01.SDTMIG.3.1.2.SDTM.1.2</studyversion>
      <standard>SDTM-IG</standard>
      <standardversion>3.1.2</standardversion>
   </ItemRefItemDef>
   <ItemRefItemDef>
      <table>DS</table>
      <column>DSSTDTC</column>
      <label>Start Date/Time of Disposition Event</label>
      <order>9</order>
      <length/>
      <displayformat/>
      <significantdigits/>
      <xmldatatype>date</xmldatatype>
      <xmlcodelist/>
      <origin>CRF</origin>
      <origindescription/>
      <role/>
      <algorithm/>
      <algorithmtype/>
      <formalexpression/>
      <formalexpressioncontext/>
      <comment/>
      <studyversion>MDV.CDISC01.SDTMIG.3.1.2.SDTM.1.2</studyversion>
      <standard>SDTM-IG</standard>
      <standardversion>3.1.2</standardversion>
   </ItemRefItemDef>
   <ItemRefItemDef>
      <table>DS</table>
      <column>DSSTDY</column>
      <label>Study Day of Start of Disposition Event</label>
      <order>10</order>
      <length>3</length>
      <displayformat/>
      <significantdigits/>
      <xmldatatype>integer</xmldatatype>
      <xmlcodelist/>
      <origin>Derived</origin>
      <origindescription/>
      <role/>
      <algorithm>DSSTDY = DSSTDTC - RFSTDTC+1 if DSSTDTC is on or after RFSTDTC. DSSTDTC - RFSTDTC if
DSSTDTC precedes RFSTDTC. Null if RFSTDTC is Null.</algorithm>
      <algorithmtype>Computation</algorithmtype>
      <formalexpression/>
      <formalexpressioncontext/>
      <comment/>
      <studyversion>MDV.CDISC01.SDTMIG.3.1.2.SDTM.1.2</studyversion>
      <standard>SDTM-IG</standard>
      <standardversion>3.1.2</standardversion>
   </ItemRefItemDef>
   <ItemGroupDef>
      <table>MH</table>
      <label>Medical History</label>
      <order>13</order>
      <repeating>Yes</repeating>
      <isreferencedata>No</isreferencedata>
      <domain>MH</domain>
      <domaindescription/>
      <class>EVENTS</class>
      <xmlpath>mh.xpt</xmlpath>
      <xmltitle>mh.xpt</xmltitle>
      <structure>One record per medical history event per subject</structure>
      <purpose>Tabulation</purpose>
      <keys>STUDYID USUBJID MHCAT MHTERM MHDTC MHSTDTC</keys>
      <date>2013-03-03</date>
      <comment/>
      <studyversion>MDV.CDISC01.SDTMIG.3.1.2.SDTM.1.2</studyversion>
      <standard>SDTM-IG</standard>
      <standardversion>3.1.2</standardversion>
   </ItemGroupDef>
   <ItemRefItemDef>
      <table>MH</table>
      <column>STUDYID</column>
      <label>Study Identifier</label>
      <order>1</order>
      <length>7</length>
      <displayformat/>
      <significantdigits/>
      <xmldatatype>text</xmldatatype>
      <xmlcodelist/>
      <origin>Protocol</origin>
      <origindescription/>
      <role/>
      <algorithm/>
      <algorithmtype/>
      <formalexpression/>
      <formalexpressioncontext/>
      <comment/>
      <studyversion>MDV.CDISC01.SDTMIG.3.1.2.SDTM.1.2</studyversion>
      <standard>SDTM-IG</standard>
      <standardversion>3.1.2</standardversion>
   </ItemRefItemDef>
   <ItemRefItemDef>
      <table>MH</table>
      <column>DOMAIN</column>
      <label>Domain Abbreviation</label>
      <order>2</order>
      <length>2</length>
      <displayformat/>
      <significantdigits/>
      <xmldatatype>text</xmldatatype>
      <xmlcodelist>CL.MH.DOMAIN</xmlcodelist>
      <origin>Assigned</origin>
      <origindescription/>
      <role/>
      <algorithm/>
      <algorithmtype/>
      <formalexpression/>
      <formalexpressioncontext/>
      <comment/>
      <studyversion>MDV.CDISC01.SDTMIG.3.1.2.SDTM.1.2</studyversion>
      <standard>SDTM-IG</standard>
      <standardversion>3.1.2</standardversion>
   </ItemRefItemDef>
   <ItemRefItemDef>
      <table>MH</table>
      <column>USUBJID</column>
      <label>Unique Subject Identifier</label>
      <order>3</order>
      <length>14</length>
      <displayformat/>
      <significantdigits/>
      <xmldatatype>text</xmldatatype>
      <xmlcodelist/>
      <origin>Derived</origin>
      <origindescription/>
      <role/>
      <algorithm>Concatenation of STUDYID and SUBJID</algorithm>
      <algorithmtype>Computation</algorithmtype>
      <formalexpression>
          catx(".",STUDYID,SUBJID)
        </formalexpression>
      <formalexpressioncontext>SAS 9.0 or later, as part of a data step assignment or proc sql select and update statements.</formalexpressioncontext>
      <comment/>
      <studyversion>MDV.CDISC01.SDTMIG.3.1.2.SDTM.1.2</studyversion>
      <standard>SDTM-IG</standard>
      <standardversion>3.1.2</standardversion>
   </ItemRefItemDef>
   <ItemRefItemDef>
      <table>MH</table>
      <column>MHSEQ</column>
      <label>Sequence Number</label>
      <order>4</order>
      <length>1</length>
      <displayformat/>
      <significantdigits/>
      <xmldatatype>integer</xmldatatype>
      <xmlcodelist/>
      <origin>Derived</origin>
      <origindescription/>
      <role/>
      <algorithm>Sequential number identifying records within each USUBJID in the domain.</algorithm>
      <algorithmtype>Computation</algorithmtype>
      <formalexpression/>
      <formalexpressioncontext/>
      <comment/>
      <studyversion>MDV.CDISC01.SDTMIG.3.1.2.SDTM.1.2</studyversion>
      <standard>SDTM-IG</standard>
      <standardversion>3.1.2</standardversion>
   </ItemRefItemDef>
   <ItemRefItemDef>
      <table>MH</table>
      <column>MHTERM</column>
      <label>Reported Term for the Medical History</label>
      <order>5</order>
      <length>169</length>
      <displayformat/>
      <significantdigits/>
      <xmldatatype>text</xmldatatype>
      <xmlcodelist/>
      <origin>CRF</origin>
      <origindescription/>
      <role/>
      <algorithm/>
      <algorithmtype/>
      <formalexpression/>
      <formalexpressioncontext/>
      <comment/>
      <studyversion>MDV.CDISC01.SDTMIG.3.1.2.SDTM.1.2</studyversion>
      <standard>SDTM-IG</standard>
      <standardversion>3.1.2</standardversion>
   </ItemRefItemDef>
   <ItemRefItemDef>
      <table>MH</table>
      <column>MHCAT</column>
      <label>Category for Medical History</label>
      <order>6</order>
      <length>28</length>
      <displayformat/>
      <significantdigits/>
      <xmldatatype>text</xmldatatype>
      <xmlcodelist>CL.MHCAT</xmlcodelist>
      <origin>CRF</origin>
      <origindescription/>
      <role/>
      <algorithm/>
      <algorithmtype/>
      <formalexpression/>
      <formalexpressioncontext/>
      <comment/>
      <studyversion>MDV.CDISC01.SDTMIG.3.1.2.SDTM.1.2</studyversion>
      <standard>SDTM-IG</standard>
      <standardversion>3.1.2</standardversion>
   </ItemRefItemDef>
   <ItemRefItemDef>
      <table>MH</table>
      <column>MHPRESP</column>
      <label>Medical History Event Pre-Specified</label>
      <order>7</order>
      <length>2</length>
      <displayformat/>
      <significantdigits/>
      <xmldatatype>text</xmldatatype>
      <xmlcodelist>CL.NY</xmlcodelist>
      <origin>Assigned</origin>
      <origindescription/>
      <role/>
      <algorithm/>
      <algorithmtype/>
      <formalexpression/>
      <formalexpressioncontext/>
      <comment/>
      <studyversion>MDV.CDISC01.SDTMIG.3.1.2.SDTM.1.2</studyversion>
      <standard>SDTM-IG</standard>
      <standardversion>3.1.2</standardversion>
   </ItemRefItemDef>
   <ItemRefItemDef>
      <table>MH</table>
      <column>MHOCCUR</column>
      <label>Medical History Occurrence</label>
      <order>8</order>
      <length>2</length>
      <displayformat/>
      <significantdigits/>
      <xmldatatype>text</xmldatatype>
      <xmlcodelist>CL.NY</xmlcodelist>
      <origin>Assigned</origin>
      <origindescription/>
      <role/>
      <algorithm/>
      <algorithmtype/>
      <formalexpression/>
      <formalexpressioncontext/>
      <comment/>
      <studyversion>MDV.CDISC01.SDTMIG.3.1.2.SDTM.1.2</studyversion>
      <standard>SDTM-IG</standard>
      <standardversion>3.1.2</standardversion>
   </ItemRefItemDef>
   <ItemRefItemDef>
      <table>MH</table>
      <column>MHBODSYS</column>
      <label>Body System or Organ Class</label>
      <order>9</order>
      <length>23</length>
      <displayformat/>
      <significantdigits/>
      <xmldatatype>text</xmldatatype>
      <xmlcodelist>CL.MHBODSYS</xmlcodelist>
      <origin>Assigned</origin>
      <origindescription/>
      <role/>
      <algorithm/>
      <algorithmtype/>
      <formalexpression/>
      <formalexpressioncontext/>
      <comment>Assigned for Medical History but not Psychiatric History</comment>
      <studyversion>MDV.CDISC01.SDTMIG.3.1.2.SDTM.1.2</studyversion>
      <standard>SDTM-IG</standard>
      <standardversion>3.1.2</standardversion>
   </ItemRefItemDef>
   <ItemRefItemDef>
      <table>MH</table>
      <column>MHDTC</column>
      <label>Date/Time of History Collection</label>
      <order>10</order>
      <length/>
      <displayformat/>
      <significantdigits/>
      <xmldatatype>date</xmldatatype>
      <xmlcodelist/>
      <origin>CRF</origin>
      <origindescription/>
      <role/>
      <algorithm/>
      <algorithmtype/>
      <formalexpression/>
      <formalexpressioncontext/>
      <comment/>
      <studyversion>MDV.CDISC01.SDTMIG.3.1.2.SDTM.1.2</studyversion>
      <standard>SDTM-IG</standard>
      <standardversion>3.1.2</standardversion>
   </ItemRefItemDef>
   <ItemRefItemDef>
      <table>MH</table>
      <column>MHSTDTC</column>
      <label>Start Date/Time of Medical History Event</label>
      <order>11</order>
      <length/>
      <displayformat/>
      <significantdigits/>
      <xmldatatype>date</xmldatatype>
      <xmlcodelist/>
      <origin>CRF</origin>
      <origindescription/>
      <role/>
      <algorithm/>
      <algorithmtype/>
      <formalexpression/>
      <formalexpressioncontext/>
      <comment/>
      <studyversion>MDV.CDISC01.SDTMIG.3.1.2.SDTM.1.2</studyversion>
      <standard>SDTM-IG</standard>
      <standardversion>3.1.2</standardversion>
   </ItemRefItemDef>
   <ItemRefItemDef>
      <table>MH</table>
      <column>MHENRF</column>
      <label>End Relative to Reference Period</label>
      <order>12</order>
      <length>30</length>
      <displayformat/>
      <significantdigits/>
      <xmldatatype>text</xmldatatype>
      <xmlcodelist>CL.MHENRF</xmlcodelist>
      <origin>CRF</origin>
      <origindescription/>
      <role/>
      <algorithm/>
      <algorithmtype/>
      <formalexpression/>
      <formalexpressioncontext/>
      <comment>CRF controlled terminology was mapped to match CDISC controlled terminology.
          </comment>
      <studyversion>MDV.CDISC01.SDTMIG.3.1.2.SDTM.1.2</studyversion>
      <standard>SDTM-IG</standard>
      <standardversion>3.1.2</standardversion>
   </ItemRefItemDef>
   <ItemGroupDef>
      <table>DA</table>
      <label>Drug Accountability</label>
      <order>14</order>
      <repeating>Yes</repeating>
      <isreferencedata>No</isreferencedata>
      <domain>DA</domain>
      <domaindescription/>
      <class>FINDINGS</class>
      <xmlpath>da.xpt</xmlpath>
      <xmltitle>da.xpt</xmltitle>
      <structure>One record per drug accountability finding per subject</structure>
      <purpose>Tabulation</purpose>
      <keys>STUDYID USUBJID DATESTCD DADTC</keys>
      <date>2013-03-03</date>
      <comment/>
      <studyversion>MDV.CDISC01.SDTMIG.3.1.2.SDTM.1.2</studyversion>
      <standard>SDTM-IG</standard>
      <standardversion>3.1.2</standardversion>
   </ItemGroupDef>
   <ItemRefItemDef>
      <table>DA</table>
      <column>STUDYID</column>
      <label>Study Identifier</label>
      <order>1</order>
      <length>7</length>
      <displayformat/>
      <significantdigits/>
      <xmldatatype>text</xmldatatype>
      <xmlcodelist/>
      <origin>Protocol</origin>
      <origindescription/>
      <role/>
      <algorithm/>
      <algorithmtype/>
      <formalexpression/>
      <formalexpressioncontext/>
      <comment/>
      <studyversion>MDV.CDISC01.SDTMIG.3.1.2.SDTM.1.2</studyversion>
      <standard>SDTM-IG</standard>
      <standardversion>3.1.2</standardversion>
   </ItemRefItemDef>
   <ItemRefItemDef>
      <table>DA</table>
      <column>DOMAIN</column>
      <label>Domain Abbreviation</label>
      <order>2</order>
      <length>2</length>
      <displayformat/>
      <significantdigits/>
      <xmldatatype>text</xmldatatype>
      <xmlcodelist>CL.DA.DOMAIN</xmlcodelist>
      <origin>Assigned</origin>
      <origindescription/>
      <role/>
      <algorithm/>
      <algorithmtype/>
      <formalexpression/>
      <formalexpressioncontext/>
      <comment/>
      <studyversion>MDV.CDISC01.SDTMIG.3.1.2.SDTM.1.2</studyversion>
      <standard>SDTM-IG</standard>
      <standardversion>3.1.2</standardversion>
   </ItemRefItemDef>
   <ItemRefItemDef>
      <table>DA</table>
      <column>USUBJID</column>
      <label>Unique Subject Identifier</label>
      <order>3</order>
      <length>14</length>
      <displayformat/>
      <significantdigits/>
      <xmldatatype>text</xmldatatype>
      <xmlcodelist/>
      <origin>Derived</origin>
      <origindescription/>
      <role/>
      <algorithm>Concatenation of STUDYID and SUBJID</algorithm>
      <algorithmtype>Computation</algorithmtype>
      <formalexpression>
          catx(".",STUDYID,SUBJID)
        </formalexpression>
      <formalexpressioncontext>SAS 9.0 or later, as part of a data step assignment or proc sql select and update statements.</formalexpressioncontext>
      <comment/>
      <studyversion>MDV.CDISC01.SDTMIG.3.1.2.SDTM.1.2</studyversion>
      <standard>SDTM-IG</standard>
      <standardversion>3.1.2</standardversion>
   </ItemRefItemDef>
   <ItemRefItemDef>
      <table>DA</table>
      <column>DASEQ</column>
      <label>Sequence Number</label>
      <order>4</order>
      <length>1</length>
      <displayformat/>
      <significantdigits/>
      <xmldatatype>integer</xmldatatype>
      <xmlcodelist/>
      <origin>Derived</origin>
      <origindescription/>
      <role/>
      <algorithm>Sequential number identifying records within each USUBJID in the domain.</algorithm>
      <algorithmtype>Computation</algorithmtype>
      <formalexpression/>
      <formalexpressioncontext/>
      <comment/>
      <studyversion>MDV.CDISC01.SDTMIG.3.1.2.SDTM.1.2</studyversion>
      <standard>SDTM-IG</standard>
      <standardversion>3.1.2</standardversion>
   </ItemRefItemDef>
   <ItemRefItemDef>
      <table>DA</table>
      <column>DATESTCD</column>
      <label>Short Name of Accountability Assessment</label>
      <order>5</order>
      <length>7</length>
      <displayformat/>
      <significantdigits/>
      <xmldatatype>text</xmldatatype>
      <xmlcodelist>CL.DATESTCD</xmlcodelist>
      <origin>Assigned</origin>
      <origindescription/>
      <role/>
      <algorithm/>
      <algorithmtype/>
      <formalexpression/>
      <formalexpressioncontext/>
      <comment/>
      <studyversion>MDV.CDISC01.SDTMIG.3.1.2.SDTM.1.2</studyversion>
      <standard>SDTM-IG</standard>
      <standardversion>3.1.2</standardversion>
   </ItemRefItemDef>
   <ItemRefItemDef>
      <table>DA</table>
      <column>DATEST</column>
      <label>Name of Accountability Assessment</label>
      <order>6</order>
      <length>25</length>
      <displayformat/>
      <significantdigits/>
      <xmldatatype>text</xmldatatype>
      <xmlcodelist>CL.DATEST</xmlcodelist>
      <origin>CRF</origin>
      <origindescription/>
      <role/>
      <algorithm/>
      <algorithmtype/>
      <formalexpression/>
      <formalexpressioncontext/>
      <comment/>
      <studyversion>MDV.CDISC01.SDTMIG.3.1.2.SDTM.1.2</studyversion>
      <standard>SDTM-IG</standard>
      <standardversion>3.1.2</standardversion>
   </ItemRefItemDef>
   <ItemRefItemDef>
      <table>DA</table>
      <column>DAORRES</column>
      <label>Assessment Result in Original Units</label>
      <order>7</order>
      <length>2</length>
      <displayformat/>
      <significantdigits/>
      <xmldatatype>text</xmldatatype>
      <xmlcodelist/>
      <origin>CRF</origin>
      <origindescription/>
      <role/>
      <algorithm/>
      <algorithmtype/>
      <formalexpression/>
      <formalexpressioncontext/>
      <comment/>
      <studyversion>MDV.CDISC01.SDTMIG.3.1.2.SDTM.1.2</studyversion>
      <standard>SDTM-IG</standard>
      <standardversion>3.1.2</standardversion>
   </ItemRefItemDef>
   <ItemRefItemDef>
      <table>DA</table>
      <column>DAORRESU</column>
      <label>Original Units</label>
      <order>8</order>
      <length>7</length>
      <displayformat/>
      <significantdigits/>
      <xmldatatype>text</xmldatatype>
      <xmlcodelist/>
      <origin>CRF</origin>
      <origindescription/>
      <role/>
      <algorithm/>
      <algorithmtype/>
      <formalexpression/>
      <formalexpressioncontext/>
      <comment/>
      <studyversion>MDV.CDISC01.SDTMIG.3.1.2.SDTM.1.2</studyversion>
      <standard>SDTM-IG</standard>
      <standardversion>3.1.2</standardversion>
   </ItemRefItemDef>
   <ItemRefItemDef>
      <table>DA</table>
      <column>DASTRESC</column>
      <label>Assessment Result in Std Format</label>
      <order>9</order>
      <length>2</length>
      <displayformat/>
      <significantdigits/>
      <xmldatatype>text</xmldatatype>
      <xmlcodelist/>
      <origin>Derived</origin>
      <origindescription/>
      <role/>
      <algorithm>DASTRESC = DAORRES</algorithm>
      <algorithmtype>Computation</algorithmtype>
      <formalexpression/>
      <formalexpressioncontext/>
      <comment/>
      <studyversion>MDV.CDISC01.SDTMIG.3.1.2.SDTM.1.2</studyversion>
      <standard>SDTM-IG</standard>
      <standardversion>3.1.2</standardversion>
   </ItemRefItemDef>
   <ItemRefItemDef>
      <table>DA</table>
      <column>DASTRESN</column>
      <label>Numeric Result/Finding in Standard Units</label>
      <order>10</order>
      <length>2</length>
      <displayformat/>
      <significantdigits/>
      <xmldatatype>integer</xmldatatype>
      <xmlcodelist/>
      <origin>Derived</origin>
      <origindescription/>
      <role/>
      <algorithm>DASTRESN = numeric value of DAORRES, when DAORRES contains numeric data.</algorithm>
      <algorithmtype>Computation</algorithmtype>
      <formalexpression/>
      <formalexpressioncontext/>
      <comment/>
      <studyversion>MDV.CDISC01.SDTMIG.3.1.2.SDTM.1.2</studyversion>
      <standard>SDTM-IG</standard>
      <standardversion>3.1.2</standardversion>
   </ItemRefItemDef>
   <ItemRefItemDef>
      <table>DA</table>
      <column>DASTRESU</column>
      <label>Assessment Standard Units</label>
      <order>11</order>
      <length>7</length>
      <displayformat/>
      <significantdigits/>
      <xmldatatype>text</xmldatatype>
      <xmlcodelist/>
      <origin>Derived</origin>
      <origindescription/>
      <role/>
      <algorithm>DASTRESU = DAORRESU</algorithm>
      <algorithmtype>Computation</algorithmtype>
      <formalexpression/>
      <formalexpressioncontext/>
      <comment/>
      <studyversion>MDV.CDISC01.SDTMIG.3.1.2.SDTM.1.2</studyversion>
      <standard>SDTM-IG</standard>
      <standardversion>3.1.2</standardversion>
   </ItemRefItemDef>
   <ItemRefItemDef>
      <table>DA</table>
      <column>VISITNUM</column>
      <label>Visit Number</label>
      <order>12</order>
      <length>2</length>
      <displayformat/>
      <significantdigits/>
      <xmldatatype>integer</xmldatatype>
      <xmlcodelist/>
      <origin>Derived</origin>
      <origindescription/>
      <role/>
      <algorithm>Derived from DADTC and SVSTDTC.</algorithm>
      <algorithmtype>Computation</algorithmtype>
      <formalexpression/>
      <formalexpressioncontext/>
      <comment/>
      <studyversion>MDV.CDISC01.SDTMIG.3.1.2.SDTM.1.2</studyversion>
      <standard>SDTM-IG</standard>
      <standardversion>3.1.2</standardversion>
   </ItemRefItemDef>
   <ItemRefItemDef>
      <table>DA</table>
      <column>VISIT</column>
      <label>Visit Name</label>
      <order>13</order>
      <length>8</length>
      <displayformat/>
      <significantdigits/>
      <xmldatatype>text</xmldatatype>
      <xmlcodelist/>
      <origin>Assigned</origin>
      <origindescription/>
      <role/>
      <algorithm/>
      <algorithmtype/>
      <formalexpression/>
      <formalexpressioncontext/>
      <comment/>
      <studyversion>MDV.CDISC01.SDTMIG.3.1.2.SDTM.1.2</studyversion>
      <standard>SDTM-IG</standard>
      <standardversion>3.1.2</standardversion>
   </ItemRefItemDef>
   <ItemRefItemDef>
      <table>DA</table>
      <column>VISITDY</column>
      <label>Planned Study Day of Visit</label>
      <order>14</order>
      <length>3</length>
      <displayformat/>
      <significantdigits/>
      <xmldatatype>integer</xmldatatype>
      <xmlcodelist/>
      <origin>Protocol</origin>
      <origindescription/>
      <role/>
      <algorithm/>
      <algorithmtype/>
      <formalexpression/>
      <formalexpressioncontext/>
      <comment/>
      <studyversion>MDV.CDISC01.SDTMIG.3.1.2.SDTM.1.2</studyversion>
      <standard>SDTM-IG</standard>
      <standardversion>3.1.2</standardversion>
   </ItemRefItemDef>
   <ItemRefItemDef>
      <table>DA</table>
      <column>DADTC</column>
      <label>Date/Time of Accountability Assessment</label>
      <order>15</order>
      <length/>
      <displayformat/>
      <significantdigits/>
      <xmldatatype>date</xmldatatype>
      <xmlcodelist/>
      <origin>CRF</origin>
      <origindescription/>
      <role/>
      <algorithm/>
      <algorithmtype/>
      <formalexpression/>
      <formalexpressioncontext/>
      <comment/>
      <studyversion>MDV.CDISC01.SDTMIG.3.1.2.SDTM.1.2</studyversion>
      <standard>SDTM-IG</standard>
      <standardversion>3.1.2</standardversion>
   </ItemRefItemDef>
   <ItemRefItemDef>
      <table>DA</table>
      <column>DADY</column>
      <label>Study Day of Accountability Assessment</label>
      <order>16</order>
      <length>3</length>
      <displayformat/>
      <significantdigits/>
      <xmldatatype>integer</xmldatatype>
      <xmlcodelist/>
      <origin>Derived</origin>
      <origindescription/>
      <role/>
      <algorithm>DADY = DADTC - RFSTDTC+1 if DADTC is on or after RFSTDTC. DADTC - RFSTDTC if DADTC precedes
RFSTDTC.</algorithm>
      <algorithmtype>Computation</algorithmtype>
      <formalexpression/>
      <formalexpressioncontext/>
      <comment/>
      <studyversion>MDV.CDISC01.SDTMIG.3.1.2.SDTM.1.2</studyversion>
      <standard>SDTM-IG</standard>
      <standardversion>3.1.2</standardversion>
   </ItemRefItemDef>
   <ItemGroupDef>
      <table>EG</table>
      <label>ECG Test Results</label>
      <order>15</order>
      <repeating>Yes</repeating>
      <isreferencedata>No</isreferencedata>
      <domain>EG</domain>
      <domaindescription/>
      <class>FINDINGS</class>
      <xmlpath>eg.xpt</xmlpath>
      <xmltitle>eg.xpt</xmltitle>
      <structure>One record per ECG observation per visit per subject</structure>
      <purpose>Tabulation</purpose>
      <keys>STUDYID USUBJID EGTESTCD EGDTC VISITNUM</keys>
      <date>2013-03-03</date>
      <comment/>
      <studyversion>MDV.CDISC01.SDTMIG.3.1.2.SDTM.1.2</studyversion>
      <standard>SDTM-IG</standard>
      <standardversion>3.1.2</standardversion>
   </ItemGroupDef>
   <ItemRefItemDef>
      <table>EG</table>
      <column>STUDYID</column>
      <label>Study Identifier</label>
      <order>1</order>
      <length>7</length>
      <displayformat/>
      <significantdigits/>
      <xmldatatype>text</xmldatatype>
      <xmlcodelist/>
      <origin>Protocol</origin>
      <origindescription/>
      <role/>
      <algorithm/>
      <algorithmtype/>
      <formalexpression/>
      <formalexpressioncontext/>
      <comment/>
      <studyversion>MDV.CDISC01.SDTMIG.3.1.2.SDTM.1.2</studyversion>
      <standard>SDTM-IG</standard>
      <standardversion>3.1.2</standardversion>
   </ItemRefItemDef>
   <ItemRefItemDef>
      <table>EG</table>
      <column>DOMAIN</column>
      <label>Domain Abbreviation</label>
      <order>2</order>
      <length>2</length>
      <displayformat/>
      <significantdigits/>
      <xmldatatype>text</xmldatatype>
      <xmlcodelist>CL.EG.DOMAIN</xmlcodelist>
      <origin>Assigned</origin>
      <origindescription/>
      <role/>
      <algorithm/>
      <algorithmtype/>
      <formalexpression/>
      <formalexpressioncontext/>
      <comment/>
      <studyversion>MDV.CDISC01.SDTMIG.3.1.2.SDTM.1.2</studyversion>
      <standard>SDTM-IG</standard>
      <standardversion>3.1.2</standardversion>
   </ItemRefItemDef>
   <ItemRefItemDef>
      <table>EG</table>
      <column>USUBJID</column>
      <label>Unique Subject Identifier</label>
      <order>3</order>
      <length>14</length>
      <displayformat/>
      <significantdigits/>
      <xmldatatype>text</xmldatatype>
      <xmlcodelist/>
      <origin>Derived</origin>
      <origindescription/>
      <role/>
      <algorithm>Concatenation of STUDYID and SUBJID</algorithm>
      <algorithmtype>Computation</algorithmtype>
      <formalexpression>
          catx(".",STUDYID,SUBJID)
        </formalexpression>
      <formalexpressioncontext>SAS 9.0 or later, as part of a data step assignment or proc sql select and update statements.</formalexpressioncontext>
      <comment/>
      <studyversion>MDV.CDISC01.SDTMIG.3.1.2.SDTM.1.2</studyversion>
      <standard>SDTM-IG</standard>
      <standardversion>3.1.2</standardversion>
   </ItemRefItemDef>
   <ItemRefItemDef>
      <table>EG</table>
      <column>EGSEQ</column>
      <label>Sequence Number</label>
      <order>4</order>
      <length>2</length>
      <displayformat/>
      <significantdigits/>
      <xmldatatype>integer</xmldatatype>
      <xmlcodelist/>
      <origin>Derived</origin>
      <origindescription/>
      <role/>
      <algorithm>Sequential number identifying records within each USUBJID in the domain.</algorithm>
      <algorithmtype>Computation</algorithmtype>
      <formalexpression/>
      <formalexpressioncontext/>
      <comment/>
      <studyversion>MDV.CDISC01.SDTMIG.3.1.2.SDTM.1.2</studyversion>
      <standard>SDTM-IG</standard>
      <standardversion>3.1.2</standardversion>
   </ItemRefItemDef>
   <ItemRefItemDef>
      <table>EG</table>
      <column>EGSPID</column>
      <label>Sponsor-Defined Identifier</label>
      <order>5</order>
      <length>6</length>
      <displayformat/>
      <significantdigits/>
      <xmldatatype>text</xmldatatype>
      <xmlcodelist/>
      <origin>Assigned</origin>
      <origindescription/>
      <role/>
      <algorithm/>
      <algorithmtype/>
      <formalexpression/>
      <formalexpressioncontext/>
      <comment>ECG parameter ordering variable</comment>
      <studyversion>MDV.CDISC01.SDTMIG.3.1.2.SDTM.1.2</studyversion>
      <standard>SDTM-IG</standard>
      <standardversion>3.1.2</standardversion>
   </ItemRefItemDef>
   <ItemRefItemDef>
      <table>EG</table>
      <column>EGTESTCD</column>
      <label>ECG Test or Examination Short Name</label>
      <order>6</order>
      <length>6</length>
      <displayformat/>
      <significantdigits/>
      <xmldatatype>text</xmldatatype>
      <xmlcodelist>CL.EGTESTCD</xmlcodelist>
      <origin>Assigned</origin>
      <origindescription/>
      <role/>
      <algorithm/>
      <algorithmtype/>
      <formalexpression/>
      <formalexpressioncontext/>
      <comment/>
      <studyversion>MDV.CDISC01.SDTMIG.3.1.2.SDTM.1.2</studyversion>
      <standard>SDTM-IG</standard>
      <standardversion>3.1.2</standardversion>
   </ItemRefItemDef>
   <ItemRefItemDef>
      <table>EG</table>
      <column>EGTEST</column>
      <label>ECG Test or Examination Name</label>
      <order>7</order>
      <length>40</length>
      <displayformat/>
      <significantdigits/>
      <xmldatatype>text</xmldatatype>
      <xmlcodelist>CL.EGTEST</xmlcodelist>
      <origin>CRF</origin>
      <origindescription/>
      <role/>
      <algorithm/>
      <algorithmtype/>
      <formalexpression/>
      <formalexpressioncontext/>
      <comment/>
      <studyversion>MDV.CDISC01.SDTMIG.3.1.2.SDTM.1.2</studyversion>
      <standard>SDTM-IG</standard>
      <standardversion>3.1.2</standardversion>
   </ItemRefItemDef>
   <ItemRefItemDef>
      <table>EG</table>
      <column>EGPOS</column>
      <label>ECG Position of Subject</label>
      <order>8</order>
      <length>6</length>
      <displayformat/>
      <significantdigits/>
      <xmldatatype>text</xmldatatype>
      <xmlcodelist/>
      <origin>Protocol</origin>
      <origindescription/>
      <role/>
      <algorithm/>
      <algorithmtype/>
      <formalexpression/>
      <formalexpressioncontext/>
      <comment>Equal to SUPINE</comment>
      <studyversion>MDV.CDISC01.SDTMIG.3.1.2.SDTM.1.2</studyversion>
      <standard>SDTM-IG</standard>
      <standardversion>3.1.2</standardversion>
   </ItemRefItemDef>
   <ItemRefItemDef>
      <table>EG</table>
      <column>EGORRES</column>
      <label>Result or Finding in Original Units</label>
      <order>9</order>
      <length>15</length>
      <displayformat/>
      <significantdigits/>
      <xmldatatype>text</xmldatatype>
      <xmlcodelist/>
      <origin>CRF</origin>
      <origindescription/>
      <role/>
      <algorithm/>
      <algorithmtype/>
      <formalexpression/>
      <formalexpressioncontext/>
      <comment/>
      <studyversion>MDV.CDISC01.SDTMIG.3.1.2.SDTM.1.2</studyversion>
      <standard>SDTM-IG</standard>
      <standardversion>3.1.2</standardversion>
   </ItemRefItemDef>
   <ItemRefItemDef>
      <table>EG</table>
      <column>EGORRESU</column>
      <label>Original Units</label>
      <order>10</order>
      <length>4</length>
      <displayformat/>
      <significantdigits/>
      <xmldatatype>text</xmldatatype>
      <xmlcodelist>CL.EGRESU</xmlcodelist>
      <origin>CRF</origin>
      <origindescription/>
      <role/>
      <algorithm/>
      <algorithmtype/>
      <formalexpression/>
      <formalexpressioncontext/>
      <comment/>
      <studyversion>MDV.CDISC01.SDTMIG.3.1.2.SDTM.1.2</studyversion>
      <standard>SDTM-IG</standard>
      <standardversion>3.1.2</standardversion>
   </ItemRefItemDef>
   <ItemRefItemDef>
      <table>EG</table>
      <column>EGSTRESC</column>
      <label>Character Result/Finding in Std Format</label>
      <order>11</order>
      <length>15</length>
      <displayformat/>
      <significantdigits/>
      <xmldatatype>text</xmldatatype>
      <xmlcodelist/>
      <origin>Derived</origin>
      <origindescription/>
      <role/>
      <algorithm>Data collected in non-standard units is converted using standard conversion factors to
standard units.</algorithm>
      <algorithmtype>Computation</algorithmtype>
      <formalexpression/>
      <formalexpressioncontext/>
      <comment/>
      <studyversion>MDV.CDISC01.SDTMIG.3.1.2.SDTM.1.2</studyversion>
      <standard>SDTM-IG</standard>
      <standardversion>3.1.2</standardversion>
   </ItemRefItemDef>
   <ItemRefItemDef>
      <table>EG</table>
      <column>EGSTRESN</column>
      <label>Numeric Result/Finding in Standard Units</label>
      <order>12</order>
      <length>5</length>
      <displayformat>5.1</displayformat>
      <significantdigits>1</significantdigits>
      <xmldatatype>float</xmldatatype>
      <xmlcodelist/>
      <origin>Derived</origin>
      <origindescription/>
      <role/>
      <algorithm>EGSTRESN = numeric value of EGSTRESC, when EGSTRESC contains numeric data.
          </algorithm>
      <algorithmtype>Computation</algorithmtype>
      <formalexpression/>
      <formalexpressioncontext/>
      <comment/>
      <studyversion>MDV.CDISC01.SDTMIG.3.1.2.SDTM.1.2</studyversion>
      <standard>SDTM-IG</standard>
      <standardversion>3.1.2</standardversion>
   </ItemRefItemDef>
   <ItemRefItemDef>
      <table>EG</table>
      <column>EGSTRESU</column>
      <label>Standard Units</label>
      <order>13</order>
      <length>9</length>
      <displayformat/>
      <significantdigits/>
      <xmldatatype>text</xmldatatype>
      <xmlcodelist>CL.EGRESU</xmlcodelist>
      <origin>Assigned</origin>
      <origindescription/>
      <role/>
      <algorithm/>
      <algorithmtype/>
      <formalexpression/>
      <formalexpressioncontext/>
      <comment/>
      <studyversion>MDV.CDISC01.SDTMIG.3.1.2.SDTM.1.2</studyversion>
      <standard>SDTM-IG</standard>
      <standardversion>3.1.2</standardversion>
   </ItemRefItemDef>
   <ItemRefItemDef>
      <table>EG</table>
      <column>EGBLFL</column>
      <label>Baseline Flag</label>
      <order>14</order>
      <length>1</length>
      <displayformat/>
      <significantdigits/>
      <xmldatatype>text</xmldatatype>
      <xmlcodelist>CL.NY</xmlcodelist>
      <origin>Derived</origin>
      <origindescription/>
      <role/>
      <algorithm>Safety subjects only: EGBLFL = "Y" for last record with non Null EGORRES on or before the
first dose date (RFSTDTC). Null otherwise</algorithm>
      <algorithmtype>Computation</algorithmtype>
      <formalexpression/>
      <formalexpressioncontext/>
      <comment/>
      <studyversion>MDV.CDISC01.SDTMIG.3.1.2.SDTM.1.2</studyversion>
      <standard>SDTM-IG</standard>
      <standardversion>3.1.2</standardversion>
   </ItemRefItemDef>
   <ItemRefItemDef>
      <table>EG</table>
      <column>EGDRVFL</column>
      <label>Derived Flag</label>
      <order>15</order>
      <length>1</length>
      <displayformat/>
      <significantdigits/>
      <xmldatatype>text</xmldatatype>
      <xmlcodelist>CL.NY</xmlcodelist>
      <origin>Derived</origin>
      <origindescription/>
      <role/>
      <algorithm>EGDRVFL = "Y" for derived EGTESTCDs QTCB and QTCF. Null otherwise.</algorithm>
      <algorithmtype>Computation</algorithmtype>
      <formalexpression/>
      <formalexpressioncontext/>
      <comment/>
      <studyversion>MDV.CDISC01.SDTMIG.3.1.2.SDTM.1.2</studyversion>
      <standard>SDTM-IG</standard>
      <standardversion>3.1.2</standardversion>
   </ItemRefItemDef>
   <ItemRefItemDef>
      <table>EG</table>
      <column>EGEVAL</column>
      <label>Evaluator</label>
      <order>16</order>
      <length>12</length>
      <displayformat/>
      <significantdigits/>
      <xmldatatype>text</xmldatatype>
      <xmlcodelist/>
      <origin>Assigned</origin>
      <origindescription/>
      <role/>
      <algorithm/>
      <algorithmtype/>
      <formalexpression/>
      <formalexpressioncontext/>
      <comment>Equal to INVESTIGATOR for CRF data</comment>
      <studyversion>MDV.CDISC01.SDTMIG.3.1.2.SDTM.1.2</studyversion>
      <standard>SDTM-IG</standard>
      <standardversion>3.1.2</standardversion>
   </ItemRefItemDef>
   <ItemRefItemDef>
      <table>EG</table>
      <column>VISITNUM</column>
      <label>Visit Number</label>
      <order>17</order>
      <length>2</length>
      <displayformat/>
      <significantdigits/>
      <xmldatatype>integer</xmldatatype>
      <xmlcodelist/>
      <origin>Assigned</origin>
      <origindescription/>
      <role/>
      <algorithm/>
      <algorithmtype/>
      <formalexpression/>
      <formalexpressioncontext/>
      <comment>Assigned from the TV domain based on the VISIT</comment>
      <studyversion>MDV.CDISC01.SDTMIG.3.1.2.SDTM.1.2</studyversion>
      <standard>SDTM-IG</standard>
      <standardversion>3.1.2</standardversion>
   </ItemRefItemDef>
   <ItemRefItemDef>
      <table>EG</table>
      <column>VISIT</column>
      <label>Visit Name</label>
      <order>18</order>
      <length>7</length>
      <displayformat/>
      <significantdigits/>
      <xmldatatype>text</xmldatatype>
      <xmlcodelist/>
      <origin>Assigned</origin>
      <origindescription/>
      <role/>
      <algorithm/>
      <algorithmtype/>
      <formalexpression/>
      <formalexpressioncontext/>
      <comment/>
      <studyversion>MDV.CDISC01.SDTMIG.3.1.2.SDTM.1.2</studyversion>
      <standard>SDTM-IG</standard>
      <standardversion>3.1.2</standardversion>
   </ItemRefItemDef>
   <ItemRefItemDef>
      <table>EG</table>
      <column>VISITDY</column>
      <label>Planned Study Day of Visit</label>
      <order>19</order>
      <length>3</length>
      <displayformat/>
      <significantdigits/>
      <xmldatatype>integer</xmldatatype>
      <xmlcodelist/>
      <origin>Protocol</origin>
      <origindescription/>
      <role/>
      <algorithm/>
      <algorithmtype/>
      <formalexpression/>
      <formalexpressioncontext/>
      <comment/>
      <studyversion>MDV.CDISC01.SDTMIG.3.1.2.SDTM.1.2</studyversion>
      <standard>SDTM-IG</standard>
      <standardversion>3.1.2</standardversion>
   </ItemRefItemDef>
   <ItemRefItemDef>
      <table>EG</table>
      <column>EGDTC</column>
      <label>Date/Time of ECG</label>
      <order>20</order>
      <length/>
      <displayformat/>
      <significantdigits/>
      <xmldatatype>date</xmldatatype>
      <xmlcodelist/>
      <origin>CRF</origin>
      <origindescription/>
      <role/>
      <algorithm/>
      <algorithmtype/>
      <formalexpression/>
      <formalexpressioncontext/>
      <comment/>
      <studyversion>MDV.CDISC01.SDTMIG.3.1.2.SDTM.1.2</studyversion>
      <standard>SDTM-IG</standard>
      <standardversion>3.1.2</standardversion>
   </ItemRefItemDef>
   <ItemRefItemDef>
      <table>EG</table>
      <column>EGDY</column>
      <label>Study Day of ECG</label>
      <order>21</order>
      <length>3</length>
      <displayformat/>
      <significantdigits/>
      <xmldatatype>integer</xmldatatype>
      <xmlcodelist/>
      <origin>Derived</origin>
      <origindescription/>
      <role/>
      <algorithm>EGDY = EGDTC-RFSTDTC+1 if EGDTC is on or after RFTSDTC. EGDTC - RFSTDTC if EGDTC precedes
RFSTDTC.</algorithm>
      <algorithmtype>Computation</algorithmtype>
      <formalexpression/>
      <formalexpressioncontext/>
      <comment/>
      <studyversion>MDV.CDISC01.SDTMIG.3.1.2.SDTM.1.2</studyversion>
      <standard>SDTM-IG</standard>
      <standardversion>3.1.2</standardversion>
   </ItemRefItemDef>
   <ItemGroupDef>
      <table>IE</table>
      <label>Inclusion/Exclusion Criteria Not Met</label>
      <order>16</order>
      <repeating>Yes</repeating>
      <isreferencedata>No</isreferencedata>
      <domain>IE</domain>
      <domaindescription/>
      <class>FINDINGS</class>
      <xmlpath>ie.xpt</xmlpath>
      <xmltitle>ie.xpt</xmltitle>
      <structure>One record per inclusion/exclusion criterion not met per subject</structure>
      <purpose>Tabulation</purpose>
      <keys>STUDYID USUBJID IETESTCD</keys>
      <date>2013-03-03</date>
      <comment/>
      <studyversion>MDV.CDISC01.SDTMIG.3.1.2.SDTM.1.2</studyversion>
      <standard>SDTM-IG</standard>
      <standardversion>3.1.2</standardversion>
   </ItemGroupDef>
   <ItemRefItemDef>
      <table>IE</table>
      <column>STUDYID</column>
      <label>Study Identifier</label>
      <order>1</order>
      <length>7</length>
      <displayformat/>
      <significantdigits/>
      <xmldatatype>text</xmldatatype>
      <xmlcodelist/>
      <origin>Protocol</origin>
      <origindescription/>
      <role/>
      <algorithm/>
      <algorithmtype/>
      <formalexpression/>
      <formalexpressioncontext/>
      <comment/>
      <studyversion>MDV.CDISC01.SDTMIG.3.1.2.SDTM.1.2</studyversion>
      <standard>SDTM-IG</standard>
      <standardversion>3.1.2</standardversion>
   </ItemRefItemDef>
   <ItemRefItemDef>
      <table>IE</table>
      <column>DOMAIN</column>
      <label>Domain Abbreviation</label>
      <order>2</order>
      <length>2</length>
      <displayformat/>
      <significantdigits/>
      <xmldatatype>text</xmldatatype>
      <xmlcodelist>CL.IE.DOMAIN</xmlcodelist>
      <origin>Assigned</origin>
      <origindescription/>
      <role/>
      <algorithm/>
      <algorithmtype/>
      <formalexpression/>
      <formalexpressioncontext/>
      <comment/>
      <studyversion>MDV.CDISC01.SDTMIG.3.1.2.SDTM.1.2</studyversion>
      <standard>SDTM-IG</standard>
      <standardversion>3.1.2</standardversion>
   </ItemRefItemDef>
   <ItemRefItemDef>
      <table>IE</table>
      <column>USUBJID</column>
      <label>Unique Subject Identifier</label>
      <order>3</order>
      <length>14</length>
      <displayformat/>
      <significantdigits/>
      <xmldatatype>text</xmldatatype>
      <xmlcodelist/>
      <origin>Derived</origin>
      <origindescription/>
      <role/>
      <algorithm>Concatenation of STUDYID and SUBJID</algorithm>
      <algorithmtype>Computation</algorithmtype>
      <formalexpression>
          catx(".",STUDYID,SUBJID)
        </formalexpression>
      <formalexpressioncontext>SAS 9.0 or later, as part of a data step assignment or proc sql select and update statements.</formalexpressioncontext>
      <comment/>
      <studyversion>MDV.CDISC01.SDTMIG.3.1.2.SDTM.1.2</studyversion>
      <standard>SDTM-IG</standard>
      <standardversion>3.1.2</standardversion>
   </ItemRefItemDef>
   <ItemRefItemDef>
      <table>IE</table>
      <column>IESEQ</column>
      <label>Sequence Number</label>
      <order>4</order>
      <length>1</length>
      <displayformat/>
      <significantdigits/>
      <xmldatatype>integer</xmldatatype>
      <xmlcodelist/>
      <origin>Derived</origin>
      <origindescription/>
      <role/>
      <algorithm>Sequential number identifying records within each USUBJID in the domain.</algorithm>
      <algorithmtype>Computation</algorithmtype>
      <formalexpression/>
      <formalexpressioncontext/>
      <comment/>
      <studyversion>MDV.CDISC01.SDTMIG.3.1.2.SDTM.1.2</studyversion>
      <standard>SDTM-IG</standard>
      <standardversion>3.1.2</standardversion>
   </ItemRefItemDef>
   <ItemRefItemDef>
      <table>IE</table>
      <column>IETESTCD</column>
      <label>Inclusion/Exclusion Criterion Short Name</label>
      <order>5</order>
      <length>6</length>
      <displayformat/>
      <significantdigits/>
      <xmldatatype>text</xmldatatype>
      <xmlcodelist>CL.IETESTCD</xmlcodelist>
      <origin>Assigned</origin>
      <origindescription/>
      <role/>
      <algorithm/>
      <algorithmtype/>
      <formalexpression/>
      <formalexpressioncontext/>
      <comment/>
      <studyversion>MDV.CDISC01.SDTMIG.3.1.2.SDTM.1.2</studyversion>
      <standard>SDTM-IG</standard>
      <standardversion>3.1.2</standardversion>
   </ItemRefItemDef>
   <ItemRefItemDef>
      <table>IE</table>
      <column>IETEST</column>
      <label>Inclusion/Exclusion Criterion</label>
      <order>6</order>
      <length>54</length>
      <displayformat/>
      <significantdigits/>
      <xmldatatype>text</xmldatatype>
      <xmlcodelist>CL.IETEST</xmlcodelist>
      <origin>CRF</origin>
      <origindescription/>
      <role/>
      <algorithm/>
      <algorithmtype/>
      <formalexpression/>
      <formalexpressioncontext/>
      <comment/>
      <studyversion>MDV.CDISC01.SDTMIG.3.1.2.SDTM.1.2</studyversion>
      <standard>SDTM-IG</standard>
      <standardversion>3.1.2</standardversion>
   </ItemRefItemDef>
   <ItemRefItemDef>
      <table>IE</table>
      <column>IECAT</column>
      <label>Inclusion/Exclusion Category</label>
      <order>7</order>
      <length>9</length>
      <displayformat/>
      <significantdigits/>
      <xmldatatype>text</xmldatatype>
      <xmlcodelist/>
      <origin>CRF</origin>
      <origindescription/>
      <role/>
      <algorithm/>
      <algorithmtype/>
      <formalexpression/>
      <formalexpressioncontext/>
      <comment/>
      <studyversion>MDV.CDISC01.SDTMIG.3.1.2.SDTM.1.2</studyversion>
      <standard>SDTM-IG</standard>
      <standardversion>3.1.2</standardversion>
   </ItemRefItemDef>
   <ItemRefItemDef>
      <table>IE</table>
      <column>IEORRES</column>
      <label>I/E Criterion Original Result</label>
      <order>8</order>
      <length>1</length>
      <displayformat/>
      <significantdigits/>
      <xmldatatype>text</xmldatatype>
      <xmlcodelist/>
      <origin>CRF</origin>
      <origindescription/>
      <role/>
      <algorithm/>
      <algorithmtype/>
      <formalexpression/>
      <formalexpressioncontext/>
      <comment/>
      <studyversion>MDV.CDISC01.SDTMIG.3.1.2.SDTM.1.2</studyversion>
      <standard>SDTM-IG</standard>
      <standardversion>3.1.2</standardversion>
   </ItemRefItemDef>
   <ItemRefItemDef>
      <table>IE</table>
      <column>IESTRESC</column>
      <label>I/E Criterion Result in Std Format</label>
      <order>9</order>
      <length>1</length>
      <displayformat/>
      <significantdigits/>
      <xmldatatype>text</xmldatatype>
      <xmlcodelist/>
      <origin>Derived</origin>
      <origindescription/>
      <role/>
      <algorithm>IESTRESC = IEORRES</algorithm>
      <algorithmtype>Computation</algorithmtype>
      <formalexpression/>
      <formalexpressioncontext/>
      <comment/>
      <studyversion>MDV.CDISC01.SDTMIG.3.1.2.SDTM.1.2</studyversion>
      <standard>SDTM-IG</standard>
      <standardversion>3.1.2</standardversion>
   </ItemRefItemDef>
   <ItemRefItemDef>
      <table>IE</table>
      <column>VISITNUM</column>
      <label>Visit Number</label>
      <order>10</order>
      <length>1</length>
      <displayformat/>
      <significantdigits/>
      <xmldatatype>integer</xmldatatype>
      <xmlcodelist/>
      <origin>Assigned</origin>
      <origindescription/>
      <role/>
      <algorithm/>
      <algorithmtype/>
      <formalexpression/>
      <formalexpressioncontext/>
      <comment>Assigned from the TV domain based on the VISIT</comment>
      <studyversion>MDV.CDISC01.SDTMIG.3.1.2.SDTM.1.2</studyversion>
      <standard>SDTM-IG</standard>
      <standardversion>3.1.2</standardversion>
   </ItemRefItemDef>
   <ItemRefItemDef>
      <table>IE</table>
      <column>VISIT</column>
      <label>Visit Name</label>
      <order>11</order>
      <length>6</length>
      <displayformat/>
      <significantdigits/>
      <xmldatatype>text</xmldatatype>
      <xmlcodelist/>
      <origin>Assigned</origin>
      <origindescription/>
      <role/>
      <algorithm/>
      <algorithmtype/>
      <formalexpression/>
      <formalexpressioncontext/>
      <comment/>
      <studyversion>MDV.CDISC01.SDTMIG.3.1.2.SDTM.1.2</studyversion>
      <standard>SDTM-IG</standard>
      <standardversion>3.1.2</standardversion>
   </ItemRefItemDef>
   <ItemRefItemDef>
      <table>IE</table>
      <column>IEDTC</column>
      <label>Date/Time of Collection</label>
      <order>12</order>
      <length/>
      <displayformat/>
      <significantdigits/>
      <xmldatatype>date</xmldatatype>
      <xmlcodelist/>
      <origin>CRF</origin>
      <origindescription/>
      <role/>
      <algorithm/>
      <algorithmtype/>
      <formalexpression/>
      <formalexpressioncontext/>
      <comment/>
      <studyversion>MDV.CDISC01.SDTMIG.3.1.2.SDTM.1.2</studyversion>
      <standard>SDTM-IG</standard>
      <standardversion>3.1.2</standardversion>
   </ItemRefItemDef>
   <ItemGroupDef>
      <table>LB</table>
      <label>Laboratory Tests Results</label>
      <order>17</order>
      <repeating>Yes</repeating>
      <isreferencedata>No</isreferencedata>
      <domain>LB</domain>
      <domaindescription/>
      <class>FINDINGS</class>
      <xmlpath>lb.xpt</xmlpath>
      <xmltitle>lb.xpt</xmltitle>
      <structure>One record per analyte per visit per subject</structure>
      <purpose>Tabulation</purpose>
      <keys>STUDYID USUBJID LBCAT LBMETHOD LBTESTCD LBDTC VISITNUM</keys>
      <date>2013-03-03</date>
      <comment/>
      <studyversion>MDV.CDISC01.SDTMIG.3.1.2.SDTM.1.2</studyversion>
      <standard>SDTM-IG</standard>
      <standardversion>3.1.2</standardversion>
   </ItemGroupDef>
   <ItemRefItemDef>
      <table>LB</table>
      <column>STUDYID</column>
      <label>Study Identifier</label>
      <order>1</order>
      <length>7</length>
      <displayformat/>
      <significantdigits/>
      <xmldatatype>text</xmldatatype>
      <xmlcodelist/>
      <origin>Protocol</origin>
      <origindescription/>
      <role/>
      <algorithm/>
      <algorithmtype/>
      <formalexpression/>
      <formalexpressioncontext/>
      <comment/>
      <studyversion>MDV.CDISC01.SDTMIG.3.1.2.SDTM.1.2</studyversion>
      <standard>SDTM-IG</standard>
      <standardversion>3.1.2</standardversion>
   </ItemRefItemDef>
   <ItemRefItemDef>
      <table>LB</table>
      <column>DOMAIN</column>
      <label>Domain Abbreviation</label>
      <order>2</order>
      <length>2</length>
      <displayformat/>
      <significantdigits/>
      <xmldatatype>text</xmldatatype>
      <xmlcodelist>CL.LB.DOMAIN</xmlcodelist>
      <origin>Assigned</origin>
      <origindescription/>
      <role/>
      <algorithm/>
      <algorithmtype/>
      <formalexpression/>
      <formalexpressioncontext/>
      <comment/>
      <studyversion>MDV.CDISC01.SDTMIG.3.1.2.SDTM.1.2</studyversion>
      <standard>SDTM-IG</standard>
      <standardversion>3.1.2</standardversion>
   </ItemRefItemDef>
   <ItemRefItemDef>
      <table>LB</table>
      <column>USUBJID</column>
      <label>Unique Subject Identifier</label>
      <order>3</order>
      <length>14</length>
      <displayformat/>
      <significantdigits/>
      <xmldatatype>text</xmldatatype>
      <xmlcodelist/>
      <origin>Derived</origin>
      <origindescription/>
      <role/>
      <algorithm>Concatenation of STUDYID and SUBJID</algorithm>
      <algorithmtype>Computation</algorithmtype>
      <formalexpression>
          catx(".",STUDYID,SUBJID)
        </formalexpression>
      <formalexpressioncontext>SAS 9.0 or later, as part of a data step assignment or proc sql select and update statements.</formalexpressioncontext>
      <comment/>
      <studyversion>MDV.CDISC01.SDTMIG.3.1.2.SDTM.1.2</studyversion>
      <standard>SDTM-IG</standard>
      <standardversion>3.1.2</standardversion>
   </ItemRefItemDef>
   <ItemRefItemDef>
      <table>LB</table>
      <column>LBSEQ</column>
      <label>Sequence Number</label>
      <order>4</order>
      <length>2</length>
      <displayformat/>
      <significantdigits/>
      <xmldatatype>integer</xmldatatype>
      <xmlcodelist/>
      <origin>Derived</origin>
      <origindescription/>
      <role/>
      <algorithm>Sequential number identifying records within each USUBJID in the domain.</algorithm>
      <algorithmtype>Computation</algorithmtype>
      <formalexpression/>
      <formalexpressioncontext/>
      <comment/>
      <studyversion>MDV.CDISC01.SDTMIG.3.1.2.SDTM.1.2</studyversion>
      <standard>SDTM-IG</standard>
      <standardversion>3.1.2</standardversion>
   </ItemRefItemDef>
   <ItemRefItemDef>
      <table>LB</table>
      <column>LBREFID</column>
      <label>Specimen ID</label>
      <order>5</order>
      <length>7</length>
      <displayformat/>
      <significantdigits/>
      <xmldatatype>text</xmldatatype>
      <xmlcodelist/>
      <origin>eDT</origin>
      <origindescription/>
      <role/>
      <algorithm/>
      <algorithmtype/>
      <formalexpression/>
      <formalexpressioncontext/>
      <comment>Accession number</comment>
      <studyversion>MDV.CDISC01.SDTMIG.3.1.2.SDTM.1.2</studyversion>
      <standard>SDTM-IG</standard>
      <standardversion>3.1.2</standardversion>
   </ItemRefItemDef>
   <ItemRefItemDef>
      <table>LB</table>
      <column>LBTESTCD</column>
      <label>Lab Test or Examination Short Name</label>
      <order>6</order>
      <length>7</length>
      <displayformat/>
      <significantdigits/>
      <xmldatatype>text</xmldatatype>
      <xmlcodelist>CL.LBTESTCD</xmlcodelist>
      <origin>Assigned</origin>
      <origindescription/>
      <role/>
      <algorithm/>
      <algorithmtype/>
      <formalexpression/>
      <formalexpressioncontext/>
      <comment/>
      <studyversion>MDV.CDISC01.SDTMIG.3.1.2.SDTM.1.2</studyversion>
      <standard>SDTM-IG</standard>
      <standardversion>3.1.2</standardversion>
   </ItemRefItemDef>
   <ItemRefItemDef>
      <table>LB</table>
      <column>LBTEST</column>
      <label>Lab Test or Examination Name</label>
      <order>7</order>
      <length>22</length>
      <displayformat/>
      <significantdigits/>
      <xmldatatype>text</xmldatatype>
      <xmlcodelist>CL.LBTEST</xmlcodelist>
      <origin>eDT</origin>
      <origindescription/>
      <role/>
      <algorithm/>
      <algorithmtype/>
      <formalexpression/>
      <formalexpressioncontext/>
      <comment/>
      <studyversion>MDV.CDISC01.SDTMIG.3.1.2.SDTM.1.2</studyversion>
      <standard>SDTM-IG</standard>
      <standardversion>3.1.2</standardversion>
   </ItemRefItemDef>
   <ItemRefItemDef>
      <table>LB</table>
      <column>LBCAT</column>
      <label>Category for Lab Test</label>
      <order>8</order>
      <length>10</length>
      <displayformat/>
      <significantdigits/>
      <xmldatatype>text</xmldatatype>
      <xmlcodelist/>
      <origin>eDT</origin>
      <origindescription/>
      <role/>
      <algorithm/>
      <algorithmtype/>
      <formalexpression/>
      <formalexpressioncontext/>
      <comment/>
      <studyversion>MDV.CDISC01.SDTMIG.3.1.2.SDTM.1.2</studyversion>
      <standard>SDTM-IG</standard>
      <standardversion>3.1.2</standardversion>
   </ItemRefItemDef>
   <ItemRefItemDef>
      <table>LB</table>
      <column>LBORRES</column>
      <label>Result or Finding in Original Units</label>
      <order>9</order>
      <length>8</length>
      <displayformat/>
      <significantdigits/>
      <xmldatatype>text</xmldatatype>
      <xmlcodelist/>
      <origin>eDT</origin>
      <origindescription/>
      <role/>
      <algorithm/>
      <algorithmtype/>
      <formalexpression/>
      <formalexpressioncontext/>
      <comment/>
      <studyversion>MDV.CDISC01.SDTMIG.3.1.2.SDTM.1.2</studyversion>
      <standard>SDTM-IG</standard>
      <standardversion>3.1.2</standardversion>
   </ItemRefItemDef>
   <ItemRefItemDef>
      <table>LB</table>
      <column>LBORRESU</column>
      <label>Original Units</label>
      <order>10</order>
      <length>7</length>
      <displayformat/>
      <significantdigits/>
      <xmldatatype>text</xmldatatype>
      <xmlcodelist>CL.LBRESU</xmlcodelist>
      <origin>eDT</origin>
      <origindescription/>
      <role/>
      <algorithm/>
      <algorithmtype/>
      <formalexpression/>
      <formalexpressioncontext/>
      <comment/>
      <studyversion>MDV.CDISC01.SDTMIG.3.1.2.SDTM.1.2</studyversion>
      <standard>SDTM-IG</standard>
      <standardversion>3.1.2</standardversion>
   </ItemRefItemDef>
   <ItemRefItemDef>
      <table>LB</table>
      <column>LBORNRLO</column>
      <label>Reference Range Lower Limit in Orig Unit</label>
      <order>11</order>
      <length>8</length>
      <displayformat/>
      <significantdigits/>
      <xmldatatype>text</xmldatatype>
      <xmlcodelist/>
      <origin>eDT</origin>
      <origindescription/>
      <role/>
      <algorithm/>
      <algorithmtype/>
      <formalexpression/>
      <formalexpressioncontext/>
      <comment/>
      <studyversion>MDV.CDISC01.SDTMIG.3.1.2.SDTM.1.2</studyversion>
      <standard>SDTM-IG</standard>
      <standardversion>3.1.2</standardversion>
   </ItemRefItemDef>
   <ItemRefItemDef>
      <table>LB</table>
      <column>LBORNRHI</column>
      <label>Reference Range Upper Limit in Orig Unit</label>
      <order>12</order>
      <length>8</length>
      <displayformat/>
      <significantdigits/>
      <xmldatatype>text</xmldatatype>
      <xmlcodelist/>
      <origin>eDT</origin>
      <origindescription/>
      <role/>
      <algorithm/>
      <algorithmtype/>
      <formalexpression/>
      <formalexpressioncontext/>
      <comment/>
      <studyversion>MDV.CDISC01.SDTMIG.3.1.2.SDTM.1.2</studyversion>
      <standard>SDTM-IG</standard>
      <standardversion>3.1.2</standardversion>
   </ItemRefItemDef>
   <ItemRefItemDef>
      <table>LB</table>
      <column>LBSTRESC</column>
      <label>Character Result/Finding in Std Format</label>
      <order>13</order>
      <length>8</length>
      <displayformat/>
      <significantdigits/>
      <xmldatatype>text</xmldatatype>
      <xmlcodelist/>
      <origin>eDT</origin>
      <origindescription/>
      <role/>
      <algorithm/>
      <algorithmtype/>
      <formalexpression/>
      <formalexpressioncontext/>
      <comment/>
      <studyversion>MDV.CDISC01.SDTMIG.3.1.2.SDTM.1.2</studyversion>
      <standard>SDTM-IG</standard>
      <standardversion>3.1.2</standardversion>
   </ItemRefItemDef>
   <ItemRefItemDef>
      <table>LB</table>
      <column>LBSTRESN</column>
      <label>Numeric Result/Finding in Standard Units</label>
      <order>14</order>
      <length>5</length>
      <displayformat>5.2</displayformat>
      <significantdigits>2</significantdigits>
      <xmldatatype>float</xmldatatype>
      <xmlcodelist/>
      <origin>eDT</origin>
      <origindescription/>
      <role/>
      <algorithm/>
      <algorithmtype/>
      <formalexpression/>
      <formalexpressioncontext/>
      <comment/>
      <studyversion>MDV.CDISC01.SDTMIG.3.1.2.SDTM.1.2</studyversion>
      <standard>SDTM-IG</standard>
      <standardversion>3.1.2</standardversion>
   </ItemRefItemDef>
   <ItemRefItemDef>
      <table>LB</table>
      <column>LBSTRESU</column>
      <label>Standard Units</label>
      <order>15</order>
      <length>7</length>
      <displayformat/>
      <significantdigits/>
      <xmldatatype>text</xmldatatype>
      <xmlcodelist/>
      <origin>eDT</origin>
      <origindescription/>
      <role/>
      <algorithm/>
      <algorithmtype/>
      <formalexpression/>
      <formalexpressioncontext/>
      <comment/>
      <studyversion>MDV.CDISC01.SDTMIG.3.1.2.SDTM.1.2</studyversion>
      <standard>SDTM-IG</standard>
      <standardversion>3.1.2</standardversion>
   </ItemRefItemDef>
   <ItemRefItemDef>
      <table>LB</table>
      <column>LBSTNRLO</column>
      <label>Reference Range Lower Limit-Std Units</label>
      <order>16</order>
      <length>4</length>
      <displayformat>4.2</displayformat>
      <significantdigits>2</significantdigits>
      <xmldatatype>float</xmldatatype>
      <xmlcodelist/>
      <origin>eDT</origin>
      <origindescription/>
      <role/>
      <algorithm/>
      <algorithmtype/>
      <formalexpression/>
      <formalexpressioncontext/>
      <comment/>
      <studyversion>MDV.CDISC01.SDTMIG.3.1.2.SDTM.1.2</studyversion>
      <standard>SDTM-IG</standard>
      <standardversion>3.1.2</standardversion>
   </ItemRefItemDef>
   <ItemRefItemDef>
      <table>LB</table>
      <column>LBSTNRHI</column>
      <label>Reference Range Upper Limit-Std Units</label>
      <order>17</order>
      <length>4</length>
      <displayformat>4.2</displayformat>
      <significantdigits>2</significantdigits>
      <xmldatatype>float</xmldatatype>
      <xmlcodelist/>
      <origin>eDT</origin>
      <origindescription/>
      <role/>
      <algorithm/>
      <algorithmtype/>
      <formalexpression/>
      <formalexpressioncontext/>
      <comment/>
      <studyversion>MDV.CDISC01.SDTMIG.3.1.2.SDTM.1.2</studyversion>
      <standard>SDTM-IG</standard>
      <standardversion>3.1.2</standardversion>
   </ItemRefItemDef>
   <ItemRefItemDef>
      <table>LB</table>
      <column>LBSTNRC</column>
      <label>Reference Range for Char Rslt-Std Units</label>
      <order>18</order>
      <length>19</length>
      <displayformat/>
      <significantdigits/>
      <xmldatatype>text</xmldatatype>
      <xmlcodelist/>
      <origin>eDT</origin>
      <origindescription/>
      <role/>
      <algorithm/>
      <algorithmtype/>
      <formalexpression/>
      <formalexpressioncontext/>
      <comment/>
      <studyversion>MDV.CDISC01.SDTMIG.3.1.2.SDTM.1.2</studyversion>
      <standard>SDTM-IG</standard>
      <standardversion>3.1.2</standardversion>
   </ItemRefItemDef>
   <ItemRefItemDef>
      <table>LB</table>
      <column>LBNRIND</column>
      <label>Reference Range Indicator</label>
      <order>19</order>
      <length>20</length>
      <displayformat/>
      <significantdigits/>
      <xmldatatype>text</xmldatatype>
      <xmlcodelist>CL.NRIND</xmlcodelist>
      <origin>Derived</origin>
      <origindescription/>
      <role/>
      <algorithm>Reference Range Indicator based upon standard results and ranges.</algorithm>
      <algorithmtype>Computation</algorithmtype>
      <formalexpression/>
      <formalexpressioncontext/>
      <comment/>
      <studyversion>MDV.CDISC01.SDTMIG.3.1.2.SDTM.1.2</studyversion>
      <standard>SDTM-IG</standard>
      <standardversion>3.1.2</standardversion>
   </ItemRefItemDef>
   <ItemRefItemDef>
      <table>LB</table>
      <column>LBSPEC</column>
      <label>Specimen Type</label>
      <order>20</order>
      <length>5</length>
      <displayformat/>
      <significantdigits/>
      <xmldatatype>text</xmldatatype>
      <xmlcodelist>CL.SPECTYPE</xmlcodelist>
      <origin>eDT</origin>
      <origindescription/>
      <role/>
      <algorithm/>
      <algorithmtype/>
      <formalexpression/>
      <formalexpressioncontext/>
      <comment/>
      <studyversion>MDV.CDISC01.SDTMIG.3.1.2.SDTM.1.2</studyversion>
      <standard>SDTM-IG</standard>
      <standardversion>3.1.2</standardversion>
   </ItemRefItemDef>
   <ItemRefItemDef>
      <table>LB</table>
      <column>LBMETHOD</column>
      <label>Method of Test or Examination</label>
      <order>21</order>
      <length>8</length>
      <displayformat/>
      <significantdigits/>
      <xmldatatype>text</xmldatatype>
      <xmlcodelist>CL.METHOD</xmlcodelist>
      <origin>eDT</origin>
      <origindescription/>
      <role/>
      <algorithm/>
      <algorithmtype/>
      <formalexpression/>
      <formalexpressioncontext/>
      <comment/>
      <studyversion>MDV.CDISC01.SDTMIG.3.1.2.SDTM.1.2</studyversion>
      <standard>SDTM-IG</standard>
      <standardversion>3.1.2</standardversion>
   </ItemRefItemDef>
   <ItemRefItemDef>
      <table>LB</table>
      <column>LBBLFL</column>
      <label>Baseline Flag</label>
      <order>22</order>
      <length>1</length>
      <displayformat/>
      <significantdigits/>
      <xmldatatype>text</xmldatatype>
      <xmlcodelist>CL.NY</xmlcodelist>
      <origin>Derived</origin>
      <origindescription/>
      <role/>
      <algorithm>Safety subjects only: LBBLFL = "Y" for last record with non Null LBORRES on or before the
first dose date (RFSTDTC). Null otherwise.</algorithm>
      <algorithmtype>Computation</algorithmtype>
      <formalexpression/>
      <formalexpressioncontext/>
      <comment/>
      <studyversion>MDV.CDISC01.SDTMIG.3.1.2.SDTM.1.2</studyversion>
      <standard>SDTM-IG</standard>
      <standardversion>3.1.2</standardversion>
   </ItemRefItemDef>
   <ItemRefItemDef>
      <table>LB</table>
      <column>LBFAST</column>
      <label>Fasting Status</label>
      <order>23</order>
      <length>1</length>
      <displayformat/>
      <significantdigits/>
      <xmldatatype>text</xmldatatype>
      <xmlcodelist>CL.NY</xmlcodelist>
      <origin>eDT</origin>
      <origindescription/>
      <role/>
      <algorithm/>
      <algorithmtype/>
      <formalexpression/>
      <formalexpressioncontext/>
      <comment/>
      <studyversion>MDV.CDISC01.SDTMIG.3.1.2.SDTM.1.2</studyversion>
      <standard>SDTM-IG</standard>
      <standardversion>3.1.2</standardversion>
   </ItemRefItemDef>
   <ItemRefItemDef>
      <table>LB</table>
      <column>VISITNUM</column>
      <label>Visit Number</label>
      <order>24</order>
      <length>2</length>
      <displayformat/>
      <significantdigits/>
      <xmldatatype>integer</xmldatatype>
      <xmlcodelist/>
      <origin>eDT</origin>
      <origindescription/>
      <role/>
      <algorithm/>
      <algorithmtype/>
      <formalexpression/>
      <formalexpressioncontext/>
      <comment/>
      <studyversion>MDV.CDISC01.SDTMIG.3.1.2.SDTM.1.2</studyversion>
      <standard>SDTM-IG</standard>
      <standardversion>3.1.2</standardversion>
   </ItemRefItemDef>
   <ItemRefItemDef>
      <table>LB</table>
      <column>VISIT</column>
      <label>Visit Name</label>
      <order>25</order>
      <length>7</length>
      <displayformat/>
      <significantdigits/>
      <xmldatatype>text</xmldatatype>
      <xmlcodelist/>
      <origin>eDT</origin>
      <origindescription/>
      <role/>
      <algorithm/>
      <algorithmtype/>
      <formalexpression/>
      <formalexpressioncontext/>
      <comment/>
      <studyversion>MDV.CDISC01.SDTMIG.3.1.2.SDTM.1.2</studyversion>
      <standard>SDTM-IG</standard>
      <standardversion>3.1.2</standardversion>
   </ItemRefItemDef>
   <ItemRefItemDef>
      <table>LB</table>
      <column>VISITDY</column>
      <label>Planned Study Day of Visit</label>
      <order>26</order>
      <length>3</length>
      <displayformat/>
      <significantdigits/>
      <xmldatatype>integer</xmldatatype>
      <xmlcodelist/>
      <origin>Protocol</origin>
      <origindescription/>
      <role/>
      <algorithm/>
      <algorithmtype/>
      <formalexpression/>
      <formalexpressioncontext/>
      <comment/>
      <studyversion>MDV.CDISC01.SDTMIG.3.1.2.SDTM.1.2</studyversion>
      <standard>SDTM-IG</standard>
      <standardversion>3.1.2</standardversion>
   </ItemRefItemDef>
   <ItemRefItemDef>
      <table>LB</table>
      <column>LBDTC</column>
      <label>Date/Time of Specimen Collection</label>
      <order>27</order>
      <length/>
      <displayformat/>
      <significantdigits/>
      <xmldatatype>datetime</xmldatatype>
      <xmlcodelist/>
      <origin>eDT</origin>
      <origindescription/>
      <role/>
      <algorithm/>
      <algorithmtype/>
      <formalexpression/>
      <formalexpressioncontext/>
      <comment/>
      <studyversion>MDV.CDISC01.SDTMIG.3.1.2.SDTM.1.2</studyversion>
      <standard>SDTM-IG</standard>
      <standardversion>3.1.2</standardversion>
   </ItemRefItemDef>
   <ItemRefItemDef>
      <table>LB</table>
      <column>LBDY</column>
      <label>Study Day of Specimen Collection</label>
      <order>28</order>
      <length>3</length>
      <displayformat/>
      <significantdigits/>
      <xmldatatype>integer</xmldatatype>
      <xmlcodelist/>
      <origin>Derived</origin>
      <origindescription/>
      <role/>
      <algorithm>LBDY = LBDTC-RFSTDTC+1 if LBDTC is on or after RFSTDTC. LBDTC - RFSTDTC if LBDTC precedes
RFSTDTC.</algorithm>
      <algorithmtype>Computation</algorithmtype>
      <formalexpression/>
      <formalexpressioncontext/>
      <comment/>
      <studyversion>MDV.CDISC01.SDTMIG.3.1.2.SDTM.1.2</studyversion>
      <standard>SDTM-IG</standard>
      <standardversion>3.1.2</standardversion>
   </ItemRefItemDef>
   <ItemGroupDef>
      <table>PE</table>
      <label>Physical Examination</label>
      <order>18</order>
      <repeating>Yes</repeating>
      <isreferencedata>No</isreferencedata>
      <domain>PE</domain>
      <domaindescription/>
      <class>FINDINGS</class>
      <xmlpath>pe.xpt</xmlpath>
      <xmltitle>pe.xpt</xmltitle>
      <structure>One record per body system or abnormality per visit per subject</structure>
      <purpose>Tabulation</purpose>
      <keys>STUDYID USUBJID PETESTCD PEDTC VISITNUM</keys>
      <date>2013-03-03</date>
      <comment/>
      <studyversion>MDV.CDISC01.SDTMIG.3.1.2.SDTM.1.2</studyversion>
      <standard>SDTM-IG</standard>
      <standardversion>3.1.2</standardversion>
   </ItemGroupDef>
   <ItemRefItemDef>
      <table>PE</table>
      <column>STUDYID</column>
      <label>Study Identifier</label>
      <order>1</order>
      <length>7</length>
      <displayformat/>
      <significantdigits/>
      <xmldatatype>text</xmldatatype>
      <xmlcodelist/>
      <origin>Protocol</origin>
      <origindescription/>
      <role/>
      <algorithm/>
      <algorithmtype/>
      <formalexpression/>
      <formalexpressioncontext/>
      <comment/>
      <studyversion>MDV.CDISC01.SDTMIG.3.1.2.SDTM.1.2</studyversion>
      <standard>SDTM-IG</standard>
      <standardversion>3.1.2</standardversion>
   </ItemRefItemDef>
   <ItemRefItemDef>
      <table>PE</table>
      <column>DOMAIN</column>
      <label>Domain Abbreviation</label>
      <order>2</order>
      <length>2</length>
      <displayformat/>
      <significantdigits/>
      <xmldatatype>text</xmldatatype>
      <xmlcodelist>CL.PE.DOMAIN</xmlcodelist>
      <origin>Assigned</origin>
      <origindescription/>
      <role/>
      <algorithm/>
      <algorithmtype/>
      <formalexpression/>
      <formalexpressioncontext/>
      <comment/>
      <studyversion>MDV.CDISC01.SDTMIG.3.1.2.SDTM.1.2</studyversion>
      <standard>SDTM-IG</standard>
      <standardversion>3.1.2</standardversion>
   </ItemRefItemDef>
   <ItemRefItemDef>
      <table>PE</table>
      <column>USUBJID</column>
      <label>Unique Subject Identifier</label>
      <order>3</order>
      <length>14</length>
      <displayformat/>
      <significantdigits/>
      <xmldatatype>text</xmldatatype>
      <xmlcodelist/>
      <origin>Derived</origin>
      <origindescription/>
      <role/>
      <algorithm>Concatenation of STUDYID and SUBJID</algorithm>
      <algorithmtype>Computation</algorithmtype>
      <formalexpression>
          catx(".",STUDYID,SUBJID)
        </formalexpression>
      <formalexpressioncontext>SAS 9.0 or later, as part of a data step assignment or proc sql select and update statements.</formalexpressioncontext>
      <comment/>
      <studyversion>MDV.CDISC01.SDTMIG.3.1.2.SDTM.1.2</studyversion>
      <standard>SDTM-IG</standard>
      <standardversion>3.1.2</standardversion>
   </ItemRefItemDef>
   <ItemRefItemDef>
      <table>PE</table>
      <column>PESEQ</column>
      <label>Sequence Number</label>
      <order>4</order>
      <length>2</length>
      <displayformat/>
      <significantdigits/>
      <xmldatatype>integer</xmldatatype>
      <xmlcodelist/>
      <origin>Derived</origin>
      <origindescription/>
      <role/>
      <algorithm>Sequential number identifying records within each USUBJID in the domain.</algorithm>
      <algorithmtype>Computation</algorithmtype>
      <formalexpression/>
      <formalexpressioncontext/>
      <comment/>
      <studyversion>MDV.CDISC01.SDTMIG.3.1.2.SDTM.1.2</studyversion>
      <standard>SDTM-IG</standard>
      <standardversion>3.1.2</standardversion>
   </ItemRefItemDef>
   <ItemRefItemDef>
      <table>PE</table>
      <column>PETESTCD</column>
      <label>Body System Examined Short Name</label>
      <order>5</order>
      <length>4</length>
      <displayformat/>
      <significantdigits/>
      <xmldatatype>text</xmldatatype>
      <xmlcodelist>CL.PETESTCD</xmlcodelist>
      <origin>Assigned</origin>
      <origindescription/>
      <role/>
      <algorithm/>
      <algorithmtype/>
      <formalexpression/>
      <formalexpressioncontext/>
      <comment/>
      <studyversion>MDV.CDISC01.SDTMIG.3.1.2.SDTM.1.2</studyversion>
      <standard>SDTM-IG</standard>
      <standardversion>3.1.2</standardversion>
   </ItemRefItemDef>
   <ItemRefItemDef>
      <table>PE</table>
      <column>PETEST</column>
      <label>Body System Examined</label>
      <order>6</order>
      <length>29</length>
      <displayformat/>
      <significantdigits/>
      <xmldatatype>text</xmldatatype>
      <xmlcodelist>CL.PETEST</xmlcodelist>
      <origin>CRF</origin>
      <origindescription/>
      <role/>
      <algorithm/>
      <algorithmtype/>
      <formalexpression/>
      <formalexpressioncontext/>
      <comment/>
      <studyversion>MDV.CDISC01.SDTMIG.3.1.2.SDTM.1.2</studyversion>
      <standard>SDTM-IG</standard>
      <standardversion>3.1.2</standardversion>
   </ItemRefItemDef>
   <ItemRefItemDef>
      <table>PE</table>
      <column>PEORRES</column>
      <label>Verbatim Examination Finding</label>
      <order>7</order>
      <length>36</length>
      <displayformat/>
      <significantdigits/>
      <xmldatatype>text</xmldatatype>
      <xmlcodelist/>
      <origin>CRF</origin>
      <origindescription/>
      <role/>
      <algorithm/>
      <algorithmtype/>
      <formalexpression/>
      <formalexpressioncontext/>
      <comment/>
      <studyversion>MDV.CDISC01.SDTMIG.3.1.2.SDTM.1.2</studyversion>
      <standard>SDTM-IG</standard>
      <standardversion>3.1.2</standardversion>
   </ItemRefItemDef>
   <ItemRefItemDef>
      <table>PE</table>
      <column>PESTRESC</column>
      <label>Character Result/Finding in Std Format</label>
      <order>8</order>
      <length>26</length>
      <displayformat/>
      <significantdigits/>
      <xmldatatype>text</xmldatatype>
      <xmlcodelist/>
      <origin>Derived</origin>
      <origindescription/>
      <role/>
      <algorithm>PESTRESC = PEORRES</algorithm>
      <algorithmtype>Computation</algorithmtype>
      <formalexpression/>
      <formalexpressioncontext/>
      <comment/>
      <studyversion>MDV.CDISC01.SDTMIG.3.1.2.SDTM.1.2</studyversion>
      <standard>SDTM-IG</standard>
      <standardversion>3.1.2</standardversion>
   </ItemRefItemDef>
   <ItemRefItemDef>
      <table>PE</table>
      <column>VISITNUM</column>
      <label>Visit Number</label>
      <order>9</order>
      <length>2</length>
      <displayformat/>
      <significantdigits/>
      <xmldatatype>integer</xmldatatype>
      <xmlcodelist/>
      <origin>Assigned</origin>
      <origindescription/>
      <role/>
      <algorithm/>
      <algorithmtype/>
      <formalexpression/>
      <formalexpressioncontext/>
      <comment>Assigned from the TV domain based on the VISIT</comment>
      <studyversion>MDV.CDISC01.SDTMIG.3.1.2.SDTM.1.2</studyversion>
      <standard>SDTM-IG</standard>
      <standardversion>3.1.2</standardversion>
   </ItemRefItemDef>
   <ItemRefItemDef>
      <table>PE</table>
      <column>VISIT</column>
      <label>Visit Name</label>
      <order>10</order>
      <length>7</length>
      <displayformat/>
      <significantdigits/>
      <xmldatatype>text</xmldatatype>
      <xmlcodelist/>
      <origin>Assigned</origin>
      <origindescription/>
      <role/>
      <algorithm/>
      <algorithmtype/>
      <formalexpression/>
      <formalexpressioncontext/>
      <comment/>
      <studyversion>MDV.CDISC01.SDTMIG.3.1.2.SDTM.1.2</studyversion>
      <standard>SDTM-IG</standard>
      <standardversion>3.1.2</standardversion>
   </ItemRefItemDef>
   <ItemRefItemDef>
      <table>PE</table>
      <column>VISITDY</column>
      <label>Planned Study Day of Visit</label>
      <order>11</order>
      <length>3</length>
      <displayformat/>
      <significantdigits/>
      <xmldatatype>integer</xmldatatype>
      <xmlcodelist/>
      <origin>Protocol</origin>
      <origindescription/>
      <role/>
      <algorithm/>
      <algorithmtype/>
      <formalexpression/>
      <formalexpressioncontext/>
      <comment/>
      <studyversion>MDV.CDISC01.SDTMIG.3.1.2.SDTM.1.2</studyversion>
      <standard>SDTM-IG</standard>
      <standardversion>3.1.2</standardversion>
   </ItemRefItemDef>
   <ItemRefItemDef>
      <table>PE</table>
      <column>PEDTC</column>
      <label>Date/Time of Examination</label>
      <order>12</order>
      <length/>
      <displayformat/>
      <significantdigits/>
      <xmldatatype>date</xmldatatype>
      <xmlcodelist/>
      <origin>CRF</origin>
      <origindescription/>
      <role/>
      <algorithm/>
      <algorithmtype/>
      <formalexpression/>
      <formalexpressioncontext/>
      <comment/>
      <studyversion>MDV.CDISC01.SDTMIG.3.1.2.SDTM.1.2</studyversion>
      <standard>SDTM-IG</standard>
      <standardversion>3.1.2</standardversion>
   </ItemRefItemDef>
   <ItemRefItemDef>
      <table>PE</table>
      <column>PEDY</column>
      <label>Study Day of Examination</label>
      <order>13</order>
      <length>3</length>
      <displayformat/>
      <significantdigits/>
      <xmldatatype>integer</xmldatatype>
      <xmlcodelist/>
      <origin>Derived</origin>
      <origindescription/>
      <role/>
      <algorithm>PEDY = PEDTC-RFSTDTC+1 if PEDTC is on or after RFSTDTC. PEDTC - RFSTDTC if PEDTC precedes
RFSTDTC.</algorithm>
      <algorithmtype>Computation</algorithmtype>
      <formalexpression/>
      <formalexpressioncontext/>
      <comment/>
      <studyversion>MDV.CDISC01.SDTMIG.3.1.2.SDTM.1.2</studyversion>
      <standard>SDTM-IG</standard>
      <standardversion>3.1.2</standardversion>
   </ItemRefItemDef>
   <ItemGroupDef>
      <table>QSCG</table>
      <label>Questionnaire-QSCG</label>
      <order>19</order>
      <repeating>Yes</repeating>
      <isreferencedata>No</isreferencedata>
      <domain>QS</domain>
      <domaindescription>Questionnaires</domaindescription>
      <class>FINDINGS</class>
      <xmlpath>qscg.xpt</xmlpath>
      <xmltitle>qscg.xpt</xmltitle>
      <structure>One record per questionnaire per question per visit per subject</structure>
      <purpose>Tabulation</purpose>
      <keys>STUDYID USUBJID QSCAT QSTESTCD QSDTC VISITNUM</keys>
      <date>2013-03-03</date>
      <comment>QS is submitted as a split dataset. The split was done based on QSCAT as QSCG (CLINICAL
GLOBAL IMPRESSIONS), QSCS (CORNELL SCALE FOR DEPRESSION INDEMENTIA) and QSMM (MINI MENTAL STATE EXAMINATION). See additional
documentation in the Reviewer's Guide, Split Datasets Section.</comment>
      <studyversion>MDV.CDISC01.SDTMIG.3.1.2.SDTM.1.2</studyversion>
      <standard>SDTM-IG</standard>
      <standardversion>3.1.2</standardversion>
   </ItemGroupDef>
   <ItemRefItemDef>
      <table>QSCG</table>
      <column>STUDYID</column>
      <label>Study Identifier</label>
      <order>1</order>
      <length>7</length>
      <displayformat/>
      <significantdigits/>
      <xmldatatype>text</xmldatatype>
      <xmlcodelist/>
      <origin>Protocol</origin>
      <origindescription/>
      <role/>
      <algorithm/>
      <algorithmtype/>
      <formalexpression/>
      <formalexpressioncontext/>
      <comment/>
      <studyversion>MDV.CDISC01.SDTMIG.3.1.2.SDTM.1.2</studyversion>
      <standard>SDTM-IG</standard>
      <standardversion>3.1.2</standardversion>
   </ItemRefItemDef>
   <ItemRefItemDef>
      <table>QSCG</table>
      <column>DOMAIN</column>
      <label>Domain Abbreviation</label>
      <order>2</order>
      <length>2</length>
      <displayformat/>
      <significantdigits/>
      <xmldatatype>text</xmldatatype>
      <xmlcodelist>CL.QS.DOMAIN</xmlcodelist>
      <origin>Assigned</origin>
      <origindescription/>
      <role/>
      <algorithm/>
      <algorithmtype/>
      <formalexpression/>
      <formalexpressioncontext/>
      <comment/>
      <studyversion>MDV.CDISC01.SDTMIG.3.1.2.SDTM.1.2</studyversion>
      <standard>SDTM-IG</standard>
      <standardversion>3.1.2</standardversion>
   </ItemRefItemDef>
   <ItemRefItemDef>
      <table>QSCG</table>
      <column>USUBJID</column>
      <label>Unique Subject Identifier</label>
      <order>3</order>
      <length>14</length>
      <displayformat/>
      <significantdigits/>
      <xmldatatype>text</xmldatatype>
      <xmlcodelist/>
      <origin>Derived</origin>
      <origindescription/>
      <role/>
      <algorithm>Concatenation of STUDYID and SUBJID</algorithm>
      <algorithmtype>Computation</algorithmtype>
      <formalexpression>
          catx(".",STUDYID,SUBJID)
        </formalexpression>
      <formalexpressioncontext>SAS 9.0 or later, as part of a data step assignment or proc sql select and update statements.</formalexpressioncontext>
      <comment/>
      <studyversion>MDV.CDISC01.SDTMIG.3.1.2.SDTM.1.2</studyversion>
      <standard>SDTM-IG</standard>
      <standardversion>3.1.2</standardversion>
   </ItemRefItemDef>
   <ItemRefItemDef>
      <table>QSCG</table>
      <column>QSSEQ</column>
      <label>Sequence Number</label>
      <order>4</order>
      <length>3</length>
      <displayformat/>
      <significantdigits/>
      <xmldatatype>integer</xmldatatype>
      <xmlcodelist/>
      <origin>Derived</origin>
      <origindescription/>
      <role/>
      <algorithm>Sequential number identifying records within each USUBJID in the domain.</algorithm>
      <algorithmtype>Computation</algorithmtype>
      <formalexpression/>
      <formalexpressioncontext/>
      <comment/>
      <studyversion>MDV.CDISC01.SDTMIG.3.1.2.SDTM.1.2</studyversion>
      <standard>SDTM-IG</standard>
      <standardversion>3.1.2</standardversion>
   </ItemRefItemDef>
   <ItemRefItemDef>
      <table>QSCG</table>
      <column>QSTESTCD</column>
      <label>Question Short Name</label>
      <order>5</order>
      <length>7</length>
      <displayformat/>
      <significantdigits/>
      <xmldatatype>text</xmldatatype>
      <xmlcodelist>CL.QSTESTCD</xmlcodelist>
      <origin>Assigned</origin>
      <origindescription/>
      <role/>
      <algorithm/>
      <algorithmtype/>
      <formalexpression/>
      <formalexpressioncontext/>
      <comment/>
      <studyversion>MDV.CDISC01.SDTMIG.3.1.2.SDTM.1.2</studyversion>
      <standard>SDTM-IG</standard>
      <standardversion>3.1.2</standardversion>
   </ItemRefItemDef>
   <ItemRefItemDef>
      <table>QSCG</table>
      <column>QSTEST</column>
      <label>Question Name</label>
      <order>6</order>
      <length>37</length>
      <displayformat/>
      <significantdigits/>
      <xmldatatype>text</xmldatatype>
      <xmlcodelist>CL.QSTEST</xmlcodelist>
      <origin>CRF</origin>
      <origindescription/>
      <role/>
      <algorithm/>
      <algorithmtype/>
      <formalexpression/>
      <formalexpressioncontext/>
      <comment/>
      <studyversion>MDV.CDISC01.SDTMIG.3.1.2.SDTM.1.2</studyversion>
      <standard>SDTM-IG</standard>
      <standardversion>3.1.2</standardversion>
   </ItemRefItemDef>
   <ItemRefItemDef>
      <table>QSCG</table>
      <column>QSCAT</column>
      <label>Category of Question</label>
      <order>7</order>
      <length>50</length>
      <displayformat/>
      <significantdigits/>
      <xmldatatype>text</xmldatatype>
      <xmlcodelist/>
      <origin>CRF</origin>
      <origindescription/>
      <role/>
      <algorithm/>
      <algorithmtype/>
      <formalexpression/>
      <formalexpressioncontext/>
      <comment/>
      <studyversion>MDV.CDISC01.SDTMIG.3.1.2.SDTM.1.2</studyversion>
      <standard>SDTM-IG</standard>
      <standardversion>3.1.2</standardversion>
   </ItemRefItemDef>
   <ItemRefItemDef>
      <table>QSCG</table>
      <column>QSORRES</column>
      <label>Finding in Original Units</label>
      <order>9</order>
      <length>20</length>
      <displayformat/>
      <significantdigits/>
      <xmldatatype>text</xmldatatype>
      <xmlcodelist/>
      <origin>CRF</origin>
      <origindescription/>
      <role/>
      <algorithm/>
      <algorithmtype/>
      <formalexpression/>
      <formalexpressioncontext/>
      <comment/>
      <studyversion>MDV.CDISC01.SDTMIG.3.1.2.SDTM.1.2</studyversion>
      <standard>SDTM-IG</standard>
      <standardversion>3.1.2</standardversion>
   </ItemRefItemDef>
   <ItemRefItemDef>
      <table>QSCG</table>
      <column>QSSTRESC</column>
      <label>Character Result/Finding in Std Format</label>
      <order>10</order>
      <length>2</length>
      <displayformat/>
      <significantdigits/>
      <xmldatatype>text</xmldatatype>
      <xmlcodelist/>
      <origin>Derived</origin>
      <origindescription/>
      <role/>
      <algorithm>If questionnaire result is a numerically relevant code then code stored here; else
character result equal to QSORRES. Character results contain mixed case data.</algorithm>
      <algorithmtype>Computation</algorithmtype>
      <formalexpression/>
      <formalexpressioncontext/>
      <comment/>
      <studyversion>MDV.CDISC01.SDTMIG.3.1.2.SDTM.1.2</studyversion>
      <standard>SDTM-IG</standard>
      <standardversion>3.1.2</standardversion>
   </ItemRefItemDef>
   <ItemRefItemDef>
      <table>QSCG</table>
      <column>QSSTRESN</column>
      <label>Numeric Finding in Standard Units</label>
      <order>11</order>
      <length>2</length>
      <displayformat/>
      <significantdigits/>
      <xmldatatype>integer</xmldatatype>
      <xmlcodelist/>
      <origin>Derived</origin>
      <origindescription/>
      <role/>
      <algorithm>When QSORRES is numeric then QSSTRESN equal to numeric result</algorithm>
      <algorithmtype>Computation</algorithmtype>
      <formalexpression/>
      <formalexpressioncontext/>
      <comment/>
      <studyversion>MDV.CDISC01.SDTMIG.3.1.2.SDTM.1.2</studyversion>
      <standard>SDTM-IG</standard>
      <standardversion>3.1.2</standardversion>
   </ItemRefItemDef>
   <ItemRefItemDef>
      <table>QSCG</table>
      <column>VISITNUM</column>
      <label>Visit Number</label>
      <order>13</order>
      <length>2</length>
      <displayformat/>
      <significantdigits/>
      <xmldatatype>integer</xmldatatype>
      <xmlcodelist/>
      <origin>Assigned</origin>
      <origindescription/>
      <role/>
      <algorithm/>
      <algorithmtype/>
      <formalexpression/>
      <formalexpressioncontext/>
      <comment>Assigned from the TV domain based on the VISIT</comment>
      <studyversion>MDV.CDISC01.SDTMIG.3.1.2.SDTM.1.2</studyversion>
      <standard>SDTM-IG</standard>
      <standardversion>3.1.2</standardversion>
   </ItemRefItemDef>
   <ItemRefItemDef>
      <table>QSCG</table>
      <column>VISIT</column>
      <label>Visit Name</label>
      <order>14</order>
      <length>8</length>
      <displayformat/>
      <significantdigits/>
      <xmldatatype>text</xmldatatype>
      <xmlcodelist/>
      <origin>Assigned</origin>
      <origindescription/>
      <role/>
      <algorithm/>
      <algorithmtype/>
      <formalexpression/>
      <formalexpressioncontext/>
      <comment/>
      <studyversion>MDV.CDISC01.SDTMIG.3.1.2.SDTM.1.2</studyversion>
      <standard>SDTM-IG</standard>
      <standardversion>3.1.2</standardversion>
   </ItemRefItemDef>
   <ItemRefItemDef>
      <table>QSCG</table>
      <column>VISITDY</column>
      <label>Planned Study Day of Visit</label>
      <order>15</order>
      <length>3</length>
      <displayformat/>
      <significantdigits/>
      <xmldatatype>integer</xmldatatype>
      <xmlcodelist/>
      <origin>Protocol</origin>
      <origindescription/>
      <role/>
      <algorithm/>
      <algorithmtype/>
      <formalexpression/>
      <formalexpressioncontext/>
      <comment/>
      <studyversion>MDV.CDISC01.SDTMIG.3.1.2.SDTM.1.2</studyversion>
      <standard>SDTM-IG</standard>
      <standardversion>3.1.2</standardversion>
   </ItemRefItemDef>
   <ItemRefItemDef>
      <table>QSCG</table>
      <column>QSDTC</column>
      <label>Date/Time of Finding</label>
      <order>16</order>
      <length/>
      <displayformat/>
      <significantdigits/>
      <xmldatatype>date</xmldatatype>
      <xmlcodelist/>
      <origin>CRF</origin>
      <origindescription/>
      <role/>
      <algorithm/>
      <algorithmtype/>
      <formalexpression/>
      <formalexpressioncontext/>
      <comment/>
      <studyversion>MDV.CDISC01.SDTMIG.3.1.2.SDTM.1.2</studyversion>
      <standard>SDTM-IG</standard>
      <standardversion>3.1.2</standardversion>
   </ItemRefItemDef>
   <ItemRefItemDef>
      <table>QSCG</table>
      <column>QSDY</column>
      <label>Study Day of Finding</label>
      <order>17</order>
      <length>3</length>
      <displayformat/>
      <significantdigits/>
      <xmldatatype>integer</xmldatatype>
      <xmlcodelist/>
      <origin>Derived</origin>
      <origindescription/>
      <role/>
      <algorithm>QSDY= QSDTC-RFSTDTC+1 if QSDTC is on or after RFSTDTC. QSDTC - RFSTDTC if QSDTC precedes
RFSTDTC.</algorithm>
      <algorithmtype>Computation</algorithmtype>
      <formalexpression/>
      <formalexpressioncontext/>
      <comment/>
      <studyversion>MDV.CDISC01.SDTMIG.3.1.2.SDTM.1.2</studyversion>
      <standard>SDTM-IG</standard>
      <standardversion>3.1.2</standardversion>
   </ItemRefItemDef>
   <ItemGroupDef>
      <table>QSCS</table>
      <label>Questionnaire-QSCS</label>
      <order>20</order>
      <repeating>Yes</repeating>
      <isreferencedata>No</isreferencedata>
      <domain>QS</domain>
      <domaindescription>Questionnaires</domaindescription>
      <class>FINDINGS</class>
      <xmlpath>qscs.xpt</xmlpath>
      <xmltitle>qscs.xpt</xmltitle>
      <structure>One record per questionnaire per question per visit per subject</structure>
      <purpose>Tabulation</purpose>
      <keys>STUDYID USUBJID QSCAT QSTESTCD QSDTC VISITNUM</keys>
      <date>2013-03-03</date>
      <comment>QS is submitted as a split dataset. The split was done based on QSCAT as QSCG (CLINICAL
GLOBAL IMPRESSIONS), QSCS (CORNELL SCALE FOR DEPRESSION INDEMENTIA) and QSMM (MINI MENTAL STATE EXAMINATION). See additional
documentation in the Reviewer's Guide, Split Datasets Section.</comment>
      <studyversion>MDV.CDISC01.SDTMIG.3.1.2.SDTM.1.2</studyversion>
      <standard>SDTM-IG</standard>
      <standardversion>3.1.2</standardversion>
   </ItemGroupDef>
   <ItemRefItemDef>
      <table>QSCS</table>
      <column>STUDYID</column>
      <label>Study Identifier</label>
      <order>1</order>
      <length>7</length>
      <displayformat/>
      <significantdigits/>
      <xmldatatype>text</xmldatatype>
      <xmlcodelist/>
      <origin>Protocol</origin>
      <origindescription/>
      <role/>
      <algorithm/>
      <algorithmtype/>
      <formalexpression/>
      <formalexpressioncontext/>
      <comment/>
      <studyversion>MDV.CDISC01.SDTMIG.3.1.2.SDTM.1.2</studyversion>
      <standard>SDTM-IG</standard>
      <standardversion>3.1.2</standardversion>
   </ItemRefItemDef>
   <ItemRefItemDef>
      <table>QSCS</table>
      <column>DOMAIN</column>
      <label>Domain Abbreviation</label>
      <order>2</order>
      <length>2</length>
      <displayformat/>
      <significantdigits/>
      <xmldatatype>text</xmldatatype>
      <xmlcodelist>CL.QS.DOMAIN</xmlcodelist>
      <origin>Assigned</origin>
      <origindescription/>
      <role/>
      <algorithm/>
      <algorithmtype/>
      <formalexpression/>
      <formalexpressioncontext/>
      <comment/>
      <studyversion>MDV.CDISC01.SDTMIG.3.1.2.SDTM.1.2</studyversion>
      <standard>SDTM-IG</standard>
      <standardversion>3.1.2</standardversion>
   </ItemRefItemDef>
   <ItemRefItemDef>
      <table>QSCS</table>
      <column>USUBJID</column>
      <label>Unique Subject Identifier</label>
      <order>3</order>
      <length>14</length>
      <displayformat/>
      <significantdigits/>
      <xmldatatype>text</xmldatatype>
      <xmlcodelist/>
      <origin>Derived</origin>
      <origindescription/>
      <role/>
      <algorithm>Concatenation of STUDYID and SUBJID</algorithm>
      <algorithmtype>Computation</algorithmtype>
      <formalexpression>
          catx(".",STUDYID,SUBJID)
        </formalexpression>
      <formalexpressioncontext>SAS 9.0 or later, as part of a data step assignment or proc sql select and update statements.</formalexpressioncontext>
      <comment/>
      <studyversion>MDV.CDISC01.SDTMIG.3.1.2.SDTM.1.2</studyversion>
      <standard>SDTM-IG</standard>
      <standardversion>3.1.2</standardversion>
   </ItemRefItemDef>
   <ItemRefItemDef>
      <table>QSCS</table>
      <column>QSSEQ</column>
      <label>Sequence Number</label>
      <order>4</order>
      <length>3</length>
      <displayformat/>
      <significantdigits/>
      <xmldatatype>integer</xmldatatype>
      <xmlcodelist/>
      <origin>Derived</origin>
      <origindescription/>
      <role/>
      <algorithm>Sequential number identifying records within each USUBJID in the domain.</algorithm>
      <algorithmtype>Computation</algorithmtype>
      <formalexpression/>
      <formalexpressioncontext/>
      <comment/>
      <studyversion>MDV.CDISC01.SDTMIG.3.1.2.SDTM.1.2</studyversion>
      <standard>SDTM-IG</standard>
      <standardversion>3.1.2</standardversion>
   </ItemRefItemDef>
   <ItemRefItemDef>
      <table>QSCS</table>
      <column>QSTESTCD</column>
      <label>Question Short Name</label>
      <order>5</order>
      <length>7</length>
      <displayformat/>
      <significantdigits/>
      <xmldatatype>text</xmldatatype>
      <xmlcodelist>CL.QSTESTCD</xmlcodelist>
      <origin>Assigned</origin>
      <origindescription/>
      <role/>
      <algorithm/>
      <algorithmtype/>
      <formalexpression/>
      <formalexpressioncontext/>
      <comment/>
      <studyversion>MDV.CDISC01.SDTMIG.3.1.2.SDTM.1.2</studyversion>
      <standard>SDTM-IG</standard>
      <standardversion>3.1.2</standardversion>
   </ItemRefItemDef>
   <ItemRefItemDef>
      <table>QSCS</table>
      <column>QSTEST</column>
      <label>Question Name</label>
      <order>6</order>
      <length>37</length>
      <displayformat/>
      <significantdigits/>
      <xmldatatype>text</xmldatatype>
      <xmlcodelist>CL.QSTEST</xmlcodelist>
      <origin>CRF</origin>
      <origindescription/>
      <role/>
      <algorithm/>
      <algorithmtype/>
      <formalexpression/>
      <formalexpressioncontext/>
      <comment/>
      <studyversion>MDV.CDISC01.SDTMIG.3.1.2.SDTM.1.2</studyversion>
      <standard>SDTM-IG</standard>
      <standardversion>3.1.2</standardversion>
   </ItemRefItemDef>
   <ItemRefItemDef>
      <table>QSCS</table>
      <column>QSCAT</column>
      <label>Category of Question</label>
      <order>7</order>
      <length>50</length>
      <displayformat/>
      <significantdigits/>
      <xmldatatype>text</xmldatatype>
      <xmlcodelist/>
      <origin>CRF</origin>
      <origindescription/>
      <role/>
      <algorithm/>
      <algorithmtype/>
      <formalexpression/>
      <formalexpressioncontext/>
      <comment/>
      <studyversion>MDV.CDISC01.SDTMIG.3.1.2.SDTM.1.2</studyversion>
      <standard>SDTM-IG</standard>
      <standardversion>3.1.2</standardversion>
   </ItemRefItemDef>
   <ItemRefItemDef>
      <table>QSCS</table>
      <column>QSSCAT</column>
      <label>Subcategory for Question</label>
      <order>8</order>
      <length>40</length>
      <displayformat/>
      <significantdigits/>
      <xmldatatype>text</xmldatatype>
      <xmlcodelist/>
      <origin>CRF</origin>
      <origindescription/>
      <role/>
      <algorithm/>
      <algorithmtype/>
      <formalexpression/>
      <formalexpressioncontext/>
      <comment/>
      <studyversion>MDV.CDISC01.SDTMIG.3.1.2.SDTM.1.2</studyversion>
      <standard>SDTM-IG</standard>
      <standardversion>3.1.2</standardversion>
   </ItemRefItemDef>
   <ItemRefItemDef>
      <table>QSCS</table>
      <column>QSORRES</column>
      <label>Finding in Original Units</label>
      <order>9</order>
      <length>20</length>
      <displayformat/>
      <significantdigits/>
      <xmldatatype>text</xmldatatype>
      <xmlcodelist/>
      <origin>CRF</origin>
      <origindescription/>
      <role/>
      <algorithm/>
      <algorithmtype/>
      <formalexpression/>
      <formalexpressioncontext/>
      <comment/>
      <studyversion>MDV.CDISC01.SDTMIG.3.1.2.SDTM.1.2</studyversion>
      <standard>SDTM-IG</standard>
      <standardversion>3.1.2</standardversion>
   </ItemRefItemDef>
   <ItemRefItemDef>
      <table>QSCS</table>
      <column>QSSTRESC</column>
      <label>Character Result/Finding in Std Format</label>
      <order>10</order>
      <length>2</length>
      <displayformat/>
      <significantdigits/>
      <xmldatatype>text</xmldatatype>
      <xmlcodelist/>
      <origin>Derived</origin>
      <origindescription/>
      <role/>
      <algorithm>If questionnaire result is a numerically relevant code then code stored here; else
character result equal to QSORRES. Character results contain mixed case data.</algorithm>
      <algorithmtype>Computation</algorithmtype>
      <formalexpression/>
      <formalexpressioncontext/>
      <comment/>
      <studyversion>MDV.CDISC01.SDTMIG.3.1.2.SDTM.1.2</studyversion>
      <standard>SDTM-IG</standard>
      <standardversion>3.1.2</standardversion>
   </ItemRefItemDef>
   <ItemRefItemDef>
      <table>QSCS</table>
      <column>QSSTRESN</column>
      <label>Numeric Finding in Standard Units</label>
      <order>11</order>
      <length>2</length>
      <displayformat/>
      <significantdigits/>
      <xmldatatype>integer</xmldatatype>
      <xmlcodelist/>
      <origin>Derived</origin>
      <origindescription/>
      <role/>
      <algorithm>When QSORRES is numeric then QSSTRESN equal to numeric result</algorithm>
      <algorithmtype>Computation</algorithmtype>
      <formalexpression/>
      <formalexpressioncontext/>
      <comment/>
      <studyversion>MDV.CDISC01.SDTMIG.3.1.2.SDTM.1.2</studyversion>
      <standard>SDTM-IG</standard>
      <standardversion>3.1.2</standardversion>
   </ItemRefItemDef>
   <ItemRefItemDef>
      <table>QSCS</table>
      <column>QSBLFL</column>
      <label>Baseline Flag</label>
      <order>12</order>
      <length>1</length>
      <displayformat/>
      <significantdigits/>
      <xmldatatype>text</xmldatatype>
      <xmlcodelist>CL.NY</xmlcodelist>
      <origin>Derived</origin>
      <origindescription/>
      <role/>
      <algorithm>Safety subjects only: QSBLFL = "Y" for last record with non Null QSORRES on or before the
first dose date (RFSTDTC). Null otherwise.</algorithm>
      <algorithmtype>Computation</algorithmtype>
      <formalexpression/>
      <formalexpressioncontext/>
      <comment/>
      <studyversion>MDV.CDISC01.SDTMIG.3.1.2.SDTM.1.2</studyversion>
      <standard>SDTM-IG</standard>
      <standardversion>3.1.2</standardversion>
   </ItemRefItemDef>
   <ItemRefItemDef>
      <table>QSCS</table>
      <column>VISITNUM</column>
      <label>Visit Number</label>
      <order>13</order>
      <length>2</length>
      <displayformat/>
      <significantdigits/>
      <xmldatatype>integer</xmldatatype>
      <xmlcodelist/>
      <origin>Assigned</origin>
      <origindescription/>
      <role/>
      <algorithm/>
      <algorithmtype/>
      <formalexpression/>
      <formalexpressioncontext/>
      <comment>Assigned from the TV domain based on the VISIT</comment>
      <studyversion>MDV.CDISC01.SDTMIG.3.1.2.SDTM.1.2</studyversion>
      <standard>SDTM-IG</standard>
      <standardversion>3.1.2</standardversion>
   </ItemRefItemDef>
   <ItemRefItemDef>
      <table>QSCS</table>
      <column>VISIT</column>
      <label>Visit Name</label>
      <order>14</order>
      <length>8</length>
      <displayformat/>
      <significantdigits/>
      <xmldatatype>text</xmldatatype>
      <xmlcodelist/>
      <origin>Assigned</origin>
      <origindescription/>
      <role/>
      <algorithm/>
      <algorithmtype/>
      <formalexpression/>
      <formalexpressioncontext/>
      <comment/>
      <studyversion>MDV.CDISC01.SDTMIG.3.1.2.SDTM.1.2</studyversion>
      <standard>SDTM-IG</standard>
      <standardversion>3.1.2</standardversion>
   </ItemRefItemDef>
   <ItemRefItemDef>
      <table>QSCS</table>
      <column>VISITDY</column>
      <label>Planned Study Day of Visit</label>
      <order>15</order>
      <length>3</length>
      <displayformat/>
      <significantdigits/>
      <xmldatatype>integer</xmldatatype>
      <xmlcodelist/>
      <origin>Protocol</origin>
      <origindescription/>
      <role/>
      <algorithm/>
      <algorithmtype/>
      <formalexpression/>
      <formalexpressioncontext/>
      <comment/>
      <studyversion>MDV.CDISC01.SDTMIG.3.1.2.SDTM.1.2</studyversion>
      <standard>SDTM-IG</standard>
      <standardversion>3.1.2</standardversion>
   </ItemRefItemDef>
   <ItemRefItemDef>
      <table>QSCS</table>
      <column>QSDTC</column>
      <label>Date/Time of Finding</label>
      <order>16</order>
      <length/>
      <displayformat/>
      <significantdigits/>
      <xmldatatype>date</xmldatatype>
      <xmlcodelist/>
      <origin>CRF</origin>
      <origindescription/>
      <role/>
      <algorithm/>
      <algorithmtype/>
      <formalexpression/>
      <formalexpressioncontext/>
      <comment/>
      <studyversion>MDV.CDISC01.SDTMIG.3.1.2.SDTM.1.2</studyversion>
      <standard>SDTM-IG</standard>
      <standardversion>3.1.2</standardversion>
   </ItemRefItemDef>
   <ItemRefItemDef>
      <table>QSCS</table>
      <column>QSDY</column>
      <label>Study Day of Finding</label>
      <order>17</order>
      <length>3</length>
      <displayformat/>
      <significantdigits/>
      <xmldatatype>integer</xmldatatype>
      <xmlcodelist/>
      <origin>Derived</origin>
      <origindescription/>
      <role/>
      <algorithm>QSDY= QSDTC-RFSTDTC+1 if QSDTC is on or after RFSTDTC. QSDTC - RFSTDTC if QSDTC precedes
RFSTDTC.</algorithm>
      <algorithmtype>Computation</algorithmtype>
      <formalexpression/>
      <formalexpressioncontext/>
      <comment/>
      <studyversion>MDV.CDISC01.SDTMIG.3.1.2.SDTM.1.2</studyversion>
      <standard>SDTM-IG</standard>
      <standardversion>3.1.2</standardversion>
   </ItemRefItemDef>
   <ItemRefItemDef>
      <table>QSCS</table>
      <column>QSEVLINT</column>
      <label>Evaluation Interval</label>
      <order>18</order>
      <length>20</length>
      <displayformat/>
      <significantdigits/>
      <xmldatatype>text</xmldatatype>
      <xmlcodelist/>
      <origin>CRF</origin>
      <origindescription/>
      <role/>
      <algorithm/>
      <algorithmtype/>
      <formalexpression/>
      <formalexpressioncontext/>
      <comment/>
      <studyversion>MDV.CDISC01.SDTMIG.3.1.2.SDTM.1.2</studyversion>
      <standard>SDTM-IG</standard>
      <standardversion>3.1.2</standardversion>
   </ItemRefItemDef>
   <ItemGroupDef>
      <table>QSMM</table>
      <label>Questionnaire-QSMM</label>
      <order>21</order>
      <repeating>Yes</repeating>
      <isreferencedata>No</isreferencedata>
      <domain>QS</domain>
      <domaindescription>Questionnaires</domaindescription>
      <class>FINDINGS</class>
      <xmlpath>qsmm.xpt</xmlpath>
      <xmltitle>qsmm.xpt</xmltitle>
      <structure>One record per questionnaire per question per visit per subject</structure>
      <purpose>Tabulation</purpose>
      <keys>STUDYID USUBJID QSCAT QSTESTCD QSDTC VISITNUM</keys>
      <date>2013-03-03</date>
      <comment>QS is submitted as a split dataset. The split was done based on QSCAT as QSCG (CLINICAL
GLOBAL IMPRESSIONS), QSCS (CORNELL SCALE FOR DEPRESSION INDEMENTIA) and QSMM (MINI MENTAL STATE EXAMINATION). See additional
documentation in the Reviewer's Guide, Split Datasets Section.</comment>
      <studyversion>MDV.CDISC01.SDTMIG.3.1.2.SDTM.1.2</studyversion>
      <standard>SDTM-IG</standard>
      <standardversion>3.1.2</standardversion>
   </ItemGroupDef>
   <ItemRefItemDef>
      <table>QSMM</table>
      <column>STUDYID</column>
      <label>Study Identifier</label>
      <order>1</order>
      <length>7</length>
      <displayformat/>
      <significantdigits/>
      <xmldatatype>text</xmldatatype>
      <xmlcodelist/>
      <origin>Protocol</origin>
      <origindescription/>
      <role/>
      <algorithm/>
      <algorithmtype/>
      <formalexpression/>
      <formalexpressioncontext/>
      <comment/>
      <studyversion>MDV.CDISC01.SDTMIG.3.1.2.SDTM.1.2</studyversion>
      <standard>SDTM-IG</standard>
      <standardversion>3.1.2</standardversion>
   </ItemRefItemDef>
   <ItemRefItemDef>
      <table>QSMM</table>
      <column>DOMAIN</column>
      <label>Domain Abbreviation</label>
      <order>2</order>
      <length>2</length>
      <displayformat/>
      <significantdigits/>
      <xmldatatype>text</xmldatatype>
      <xmlcodelist>CL.QS.DOMAIN</xmlcodelist>
      <origin>Assigned</origin>
      <origindescription/>
      <role/>
      <algorithm/>
      <algorithmtype/>
      <formalexpression/>
      <formalexpressioncontext/>
      <comment/>
      <studyversion>MDV.CDISC01.SDTMIG.3.1.2.SDTM.1.2</studyversion>
      <standard>SDTM-IG</standard>
      <standardversion>3.1.2</standardversion>
   </ItemRefItemDef>
   <ItemRefItemDef>
      <table>QSMM</table>
      <column>USUBJID</column>
      <label>Unique Subject Identifier</label>
      <order>3</order>
      <length>14</length>
      <displayformat/>
      <significantdigits/>
      <xmldatatype>text</xmldatatype>
      <xmlcodelist/>
      <origin>Derived</origin>
      <origindescription/>
      <role/>
      <algorithm>Concatenation of STUDYID and SUBJID</algorithm>
      <algorithmtype>Computation</algorithmtype>
      <formalexpression>
          catx(".",STUDYID,SUBJID)
        </formalexpression>
      <formalexpressioncontext>SAS 9.0 or later, as part of a data step assignment or proc sql select and update statements.</formalexpressioncontext>
      <comment/>
