{"_links":{"parentBiomedicalConcept":{"href":"/mdr/bc/packages/2023-07-06/biomedicalconcepts/C179175","title":"Solicited Adverse Event","type":"Biomedical Concept"},"parentPackage":{"href":"/mdr/specializations/sdtm/packages/2023-07-06/datasetspecializations","title":"SDTM Dataset Specialization Package Effective 2023-07-06","type":"SDTM Dataset Specialization Package"},"self":{"href":"/mdr/specializations/sdtm/packages/2023-07-06/datasetspecializations/AE","title":"Adverse Event Free Text Format","type":"SDTM Dataset Specialization"}},"datasetSpecializationId":"AE","domain":"AE","shortName":"Adverse Event Free Text Format","source":"AE.AETERM","sdtmigStartVersion":"3-4","sdtmigEndVersion":"","variables":[{"name":"AETERM","dateElementConceptId":"C78541","isNonStandard":false,"role":"Topic","dataType":"text","length":200,"relationship":{"subject":"AETERM","linkingPhrase":"is original text for","predicateTerm":"IS_ORIGINAL_TEXT_FOR","object":"AEDECODE"},"mandatoryVariable":true,"mandatoryValue":true,"originType":"Collected","originSource":"Investigator"},{"name":"AEDECOD","dateElementConceptId":"C83344","isNonStandard":false,"role":"Qualifier","dataType":"text","length":200,"relationship":{"subject":"AEDECOD","linkingPhrase":"is a dictionary-derived term for the value in","predicateTerm":"IS_DERIVED_FROM","object":"AETERM"},"mandatoryVariable":true,"mandatoryValue":false,"originType":"Assigned","originSource":"Sponsor"},{"name":"AELLT","isNonStandard":false,"role":"Qualifier","dataType":"text","length":200,"relationship":{"subject":"AELLT","linkingPhrase":"is a dictionary-derived term for the value in","predicateTerm":"IS_DERIVED_FROM","object":"AETERM"},"mandatoryVariable":true,"mandatoryValue":false,"originType":"Assigned","originSource":"Sponsor"},{"name":"AELLTCD","isNonStandard":false,"role":"Qualifier","dataType":"text","length":8,"relationship":{"subject":"AELLTCD","linkingPhrase":"is the code for the value in","predicateTerm":"IS_DECODED_BY","object":"AETERM"},"mandatoryVariable":true,"mandatoryValue":false,"originType":"Assigned","originSource":"Sponsor"},{"name":"AEPTCD","isNonStandard":false,"role":"Qualifier","dataType":"text","length":8,"relationship":{"subject":"AEPTCD","linkingPhrase":"is the code for the value in","predicateTerm":"IS_DECODED_BY","object":"AETERM"},"mandatoryVariable":true,"mandatoryValue":false,"originType":"Assigned","originSource":"Sponsor"},{"name":"AEHLT","isNonStandard":false,"role":"Qualifier","dataType":"text","length":200,"relationship":{"subject":"AEHLT","linkingPhrase":"is a dictionary-derived term for the value in","predicateTerm":"IS_DERIVED_FROM","object":"AETERM"},"mandatoryVariable":true,"mandatoryValue":false,"originType":"Assigned","originSource":"Sponsor"},{"name":"AEHLTCD","isNonStandard":false,"role":"Qualifier","dataType":"text","length":8,"relationship":{"subject":"AEHLTCD","linkingPhrase":"is the code for the value in","predicateTerm":"IS_DECODED_BY","object":"AETERM"},"mandatoryVariable":true,"mandatoryValue":false,"originType":"Assigned","originSource":"Sponsor"},{"name":"AECAT","dateElementConceptId":"C83198","isNonStandard":false,"role":"Qualifier","dataType":"text","length":200,"relationship":{"subject":"AECAT","linkingPhrase":"groups values in","predicateTerm":"GROUPS","object":"AETERM"},"mandatoryVariable":false,"mandatoryValue":false,"originType":"Assigned","originSource":"Sponsor"},{"name":"AESCAT","dateElementConceptId":"C83212","isNonStandard":false,"role":"Qualifier","dataType":"text","length":200,"relationship":{"subject":"AESCAT","linkingPhrase":"values are grouped by","predicateTerm":"IS_GROUPED_BY","object":"AECAT"},"mandatoryVariable":false,"mandatoryValue":false,"originType":"Assigned","originSource":"Sponsor"},{"name":"AEBODSYS","isNonStandard":false,"role":"Qualifier","dataType":"text","length":200,"relationship":{"subject":"AEBODSYS","linkingPhrase":"is a dictionary-derived term for the value in","predicateTerm":"IS_DERIVED_FROM","object":"AETERM"},"mandatoryVariable":true,"mandatoryValue":false,"originType":"Assigned","originSource":"Sponsor"},{"name":"AEBDSYCD","isNonStandard":false,"role":"Qualifier","dataType":"text","length":8,"relationship":{"subject":"AEBDSYCD","linkingPhrase":"is the code for the value in","predicateTerm":"IS_DECODED_BY","object":"AETERM"},"mandatoryVariable":true,"mandatoryValue":false,"originType":"Assigned","originSource":"Sponsor"},{"name":"AESOC","isNonStandard":false,"role":"Qualifier","dataType":"text","length":200,"relationship":{"subject":"AESOC","linkingPhrase":"is a dictionary-derived term for the value in","predicateTerm":"IS_DERIVED_FROM","object":"AETERM"},"mandatoryVariable":true,"mandatoryValue":false,"originType":"Assigned","originSource":"Sponsor"},{"name":"AESOCCD","isNonStandard":false,"role":"Qualifier","dataType":"text","length":8,"relationship":{"subject":"AESOCCD","linkingPhrase":"is the code for the value in","predicateTerm":"IS_DECODED_BY","object":"AETERM"},"mandatoryVariable":true,"mandatoryValue":false,"originType":"Assigned","originSource":"Sponsor"},{"name":"AELOC","dateElementConceptId":"C83205","isNonStandard":false,"codelist":{"conceptId":"C74456","submissionValue":"LOC","href":"https://ncithesaurus.nci.nih.gov/ncitbrowser/ConceptReport.jsp?dictionary=NCI_Thesaurus&ns=ncit&code=C74456"},"role":"Qualifier","dataType":"text","length":200,"relationship":{"subject":"AELOC","linkingPhrase":"specifies the anatomical location of","predicateTerm":"SPECIFIES","object":"AETERM"},"mandatoryVariable":false,"mandatoryValue":false,"originType":"Collected","originSource":"Investigator"},{"name":"AESEV","dateElementConceptId":"C53253","isNonStandard":false,"codelist":{"conceptId":"C66769","submissionValue":"AESEV","href":"https://ncithesaurus.nci.nih.gov/ncitbrowser/ConceptReport.jsp?dictionary=NCI_Thesaurus&ns=ncit&code=C66769"},"role":"Qualifier","dataType":"text","length":200,"relationship":{"subject":"AESEV","linkingPhrase":"specifies the severity of","predicateTerm":"SPECIFIES","object":"AETERM"},"mandatoryVariable":false,"mandatoryValue":false,"originType":"Collected","originSource":"Investigator"},{"name":"AESER","dateElementConceptId":"C53252","isNonStandard":false,"codelist":{"conceptId":"C66742","submissionValue":"NY","href":"https://ncithesaurus.nci.nih.gov/ncitbrowser/ConceptReport.jsp?dictionary=NCI_Thesaurus&ns=ncit&code=C66742"},"subsetCodelist":"NY_NY","valueList":["N","Y"],"role":"Qualifier","dataType":"text","length":1,"relationship":{"subject":"AESER","linkingPhrase":"indicates severity of","predicateTerm":"INDICATES","object":"AETERM"},"mandatoryVariable":true,"mandatoryValue":false,"originType":"Collected","originSource":"Investigator"},{"name":"AEACN","dateElementConceptId":"C83013","isNonStandard":false,"codelist":{"conceptId":"C66767","submissionValue":"ACN","href":"https://ncithesaurus.nci.nih.gov/ncitbrowser/ConceptReport.jsp?dictionary=NCI_Thesaurus&ns=ncit&code=C66767"},"role":"Qualifier","dataType":"text","length":200,"relationship":{"subject":"AEACN","linkingPhrase":"describes actions taken","predicateTerm":"DESCRIBES","object":"AETERM"},"mandatoryVariable":true,"mandatoryValue":false,"originType":"Collected","originSource":"Investigator"},{"name":"AEACNOTH","dateElementConceptId":"C83109","isNonStandard":false,"role":"Qualifier","dataType":"text","length":200,"relationship":{"subject":"AEACNOTH","linkingPhrase":"describes actions taken","predicateTerm":"DESCRIBES","object":"AETERM"},"mandatoryVariable":false,"mandatoryValue":false,"originType":"Collected","originSource":"Investigator"},{"name":"AEREL","dateElementConceptId":"C41358","isNonStandard":false,"role":"Qualifier","dataType":"text","length":200,"relationship":{"subject":"AEREL","linkingPhrase":"describes relationship of","predicateTerm":"DESCRIBES","object":"AETERM"},"mandatoryVariable":true,"mandatoryValue":false,"originType":"Collected","originSource":"Investigator"},{"name":"AERLDEV","isNonStandard":false,"role":"Qualifier","dataType":"text","length":200,"relationship":{"subject":"AERLDEV","linkingPhrase":"describes relationship of","predicateTerm":"DESCRIBES","object":"AETERM"},"mandatoryVariable":false,"mandatoryValue":false,"originType":"Collected","originSource":"Investigator"},{"name":"AERELNST","dateElementConceptId":"C83210","isNonStandard":false,"role":"Qualifier","dataType":"text","length":200,"relationship":{"subject":"AERELNST","linkingPhrase":"describes relationship of","predicateTerm":"DESCRIBES","object":"AETERM"},"mandatoryVariable":false,"mandatoryValue":false,"originType":"Collected","originSource":"Investigator"},{"name":"AEPATT","dateElementConceptId":"C83208","isNonStandard":false,"role":"Qualifier","dataType":"text","length":200,"relationship":{"subject":"AEPATT","linkingPhrase":"identifies a pattern of","predicateTerm":"IDENTIFIES","object":"AETERM"},"mandatoryVariable":false,"mandatoryValue":false,"originType":"Collected","originSource":"Investigator"},{"name":"AEOUT","dateElementConceptId":"C49489","isNonStandard":false,"codelist":{"conceptId":"C66768","submissionValue":"OUT","href":"https://ncithesaurus.nci.nih.gov/ncitbrowser/ConceptReport.jsp?dictionary=NCI_Thesaurus&ns=ncit&code=C66768"},"role":"Qualifier","dataType":"text","length":200,"relationship":{"subject":"AEOUT","linkingPhrase":"describes the outcome of","predicateTerm":"DESCRIBES","object":"AETERM"},"mandatoryVariable":false,"mandatoryValue":false,"originType":"Collected","originSource":"Investigator"},{"name":"AESCAN","dateElementConceptId":"C83211","isNonStandard":false,"codelist":{"conceptId":"C66742","submissionValue":"NY","href":"https://ncithesaurus.nci.nih.gov/ncitbrowser/ConceptReport.jsp?dictionary=NCI_Thesaurus&ns=ncit&code=C66742"},"subsetCodelist":"NY_NY","valueList":["N","Y"],"role":"Qualifier","dataType":"text","length":1,"relationship":{"subject":"AESCAN","linkingPhrase":"describes relationship of","predicateTerm":"DESCRIBES","object":"AETERM"},"mandatoryVariable":false,"mandatoryValue":false,"originType":"Collected","originSource":"Investigator"},{"name":"AESCONG","dateElementConceptId":"C83117","isNonStandard":false,"codelist":{"conceptId":"C66742","submissionValue":"NY","href":"https://ncithesaurus.nci.nih.gov/ncitbrowser/ConceptReport.jsp?dictionary=NCI_Thesaurus&ns=ncit&code=C66742"},"subsetCodelist":"NY_NY","valueList":["N","Y"],"role":"Qualifier","dataType":"text","length":1,"relationship":{"subject":"AESCONG","linkingPhrase":"describes relationship of","predicateTerm":"DESCRIBES","object":"AETERM"},"mandatoryVariable":false,"mandatoryValue":false,"originType":"Collected","originSource":"Investigator"},{"name":"AESDISAB","dateElementConceptId":"C113380","isNonStandard":false,"codelist":{"conceptId":"C66742","submissionValue":"NY","href":"https://ncithesaurus.nci.nih.gov/ncitbrowser/ConceptReport.jsp?dictionary=NCI_Thesaurus&ns=ncit&code=C66742"},"subsetCodelist":"NY_NY","valueList":["N","Y"],"role":"Qualifier","dataType":"text","length":1,"relationship":{"subject":"AESDISAB","linkingPhrase":"describes relationship of","predicateTerm":"DESCRIBES","object":"AETERM"},"mandatoryVariable":false,"mandatoryValue":false,"originType":"Collected","originSource":"Investigator"},{"name":"AESDTH","dateElementConceptId":"C48275","isNonStandard":false,"codelist":{"conceptId":"C66742","submissionValue":"NY","href":"https://ncithesaurus.nci.nih.gov/ncitbrowser/ConceptReport.jsp?dictionary=NCI_Thesaurus&ns=ncit&code=C66742"},"subsetCodelist":"NY_NY","valueList":["N","Y"],"role":"Qualifier","dataType":"text","length":1,"relationship":{"subject":"AESDTH","linkingPhrase":"describes relationship of","predicateTerm":"DESCRIBES","object":"AETERM"},"mandatoryVariable":false,"mandatoryValue":false,"originType":"Collected","originSource":"Investigator"},{"name":"AESHOSP","dateElementConceptId":"C83052","isNonStandard":false,"codelist":{"conceptId":"C66742","submissionValue":"NY","href":"https://ncithesaurus.nci.nih.gov/ncitbrowser/ConceptReport.jsp?dictionary=NCI_Thesaurus&ns=ncit&code=C66742"},"subsetCodelist":"NY_NY","valueList":["N","Y"],"role":"Qualifier","dataType":"text","length":1,"relationship":{"subject":"AESHOSP","linkingPhrase":"describes relationship of","predicateTerm":"DESCRIBES","object":"AETERM"},"mandatoryVariable":false,"mandatoryValue":false,"originType":"Collected","originSource":"Investigator"},{"name":"AESLIFE","dateElementConceptId":"C84266","isNonStandard":false,"codelist":{"conceptId":"C66742","submissionValue":"NY","href":"https://ncithesaurus.nci.nih.gov/ncitbrowser/ConceptReport.jsp?dictionary=NCI_Thesaurus&ns=ncit&code=C66742"},"subsetCodelist":"NY_NY","valueList":["N","Y"],"role":"Qualifier","dataType":"text","length":1,"relationship":{"subject":"AESLIFE","linkingPhrase":"describes relationship of","predicateTerm":"DESCRIBES","object":"AETERM"},"mandatoryVariable":false,"mandatoryValue":false,"originType":"Collected","originSource":"Investigator"},{"name":"AESOD","dateElementConceptId":"C83214","isNonStandard":false,"codelist":{"conceptId":"C66742","submissionValue":"NY","href":"https://ncithesaurus.nci.nih.gov/ncitbrowser/ConceptReport.jsp?dictionary=NCI_Thesaurus&ns=ncit&code=C66742"},"subsetCodelist":"NY_NY","valueList":["N","Y"],"role":"Qualifier","dataType":"text","length":1,"relationship":{"subject":"AESOD","linkingPhrase":"describes relationship of","predicateTerm":"DESCRIBES","object":"AETERM"},"mandatoryVariable":false,"mandatoryValue":false,"originType":"Collected","originSource":"Investigator"},{"name":"AESMIE","dateElementConceptId":"C83053","isNonStandard":false,"codelist":{"conceptId":"C66742","submissionValue":"NY","href":"https://ncithesaurus.nci.nih.gov/ncitbrowser/ConceptReport.jsp?dictionary=NCI_Thesaurus&ns=ncit&code=C66742"},"subsetCodelist":"NY_NY","valueList":["N","Y"],"role":"Qualifier","dataType":"text","length":1,"relationship":{"subject":"AESMIE","linkingPhrase":"describes relationship of","predicateTerm":"DESCRIBES","object":"AETERM"},"mandatoryVariable":false,"mandatoryValue":false,"originType":"Collected","originSource":"Investigator"},{"name":"AECONTRT","dateElementConceptId":"C83199","isNonStandard":false,"codelist":{"conceptId":"C66742","submissionValue":"NY","href":"https://ncithesaurus.nci.nih.gov/ncitbrowser/ConceptReport.jsp?dictionary=NCI_Thesaurus&ns=ncit&code=C66742"},"subsetCodelist":"NY_NY","valueList":["N","Y"],"role":"Qualifier","dataType":"text","length":1,"relationship":{"subject":"AECONTRT","linkingPhrase":"describes relationship of","predicateTerm":"DESCRIBES","object":"AETERM"},"mandatoryVariable":false,"mandatoryValue":false,"originType":"Collected","originSource":"Investigator"}]}