{"_links":{"parentBiomedicalConcept":{"href":"/mdr/bc/packages/2023-07-06/biomedicalconcepts/C174314","title":"B-Lymphocyte Count","type":"Biomedical Concept"},"parentPackage":{"href":"/mdr/specializations/sdtm/packages/2023-07-06/datasetspecializations","title":"SDTM Dataset Specialization Package Effective 2023-07-06","type":"SDTM Dataset Specialization Package"},"self":{"href":"/mdr/specializations/sdtm/packages/2023-07-06/datasetspecializations/BLYCEBLD","title":"B-Lymphocytes in Blood","type":"SDTM Dataset Specialization"}},"datasetSpecializationId":"BLYCEBLD","domain":"LB","shortName":"B-Lymphocytes in Blood","source":"LB.LBTESTCD","sdtmigStartVersion":"3-2","sdtmigEndVersion":"","variables":[{"name":"LBTESTCD","isNonStandard":false,"codelist":{"conceptId":"C65047","submissionValue":"LBTESTCD","href":"https://ncithesaurus.nci.nih.gov/ncitbrowser/ConceptReport.jsp?dictionary=NCI_Thesaurus&ns=ncit&code=C65047"},"assignedTerm":{"conceptId":"C174314","value":"BLYCE"},"role":"Topic","relationship":{"subject":"LBTESTCD","linkingPhrase":"is the code for the value in","predicateTerm":"IS_DECODED_BY","object":"LBTEST"},"mandatoryVariable":true,"mandatoryValue":false,"comparator":"EQ"},{"name":"LBTEST","isNonStandard":false,"codelist":{"conceptId":"C67154","submissionValue":"LBTEST","href":"https://ncithesaurus.nci.nih.gov/ncitbrowser/ConceptReport.jsp?dictionary=NCI_Thesaurus&ns=ncit&code=C67154"},"assignedTerm":{"conceptId":"C174314","value":"B-Lymphocytes"},"role":"Qualifier","relationship":{"subject":"LBTEST","linkingPhrase":"decodes the value in","predicateTerm":"DECODES","object":"LBTESTCD"},"mandatoryVariable":true,"mandatoryValue":false},{"name":"LBCAT","isNonStandard":false,"assignedTerm":{"value":"HEMATOLOGY"},"role":"Qualifier","relationship":{"subject":"LBCAT","linkingPhrase":"groups values in","predicateTerm":"GROUPS","object":"LBTESTCD"},"mandatoryVariable":true,"mandatoryValue":false},{"name":"LBORRES","dateElementConceptId":"C36292","isNonStandard":false,"role":"Qualifier","dataType":"float","length":12,"format":"12.4","significantDigits":4,"relationship":{"subject":"LBORRES","linkingPhrase":"is the result of the test in","predicateTerm":"IS_RESULT_OF","object":"LBTESTCD"},"mandatoryVariable":true,"mandatoryValue":false,"originType":"Collected","originSource":"Vendor","vlmTarget":true},{"name":"LBORRESU","dateElementConceptId":"C67391","isNonStandard":false,"codelist":{"conceptId":"C71620","submissionValue":"UNIT","href":"https://ncithesaurus.nci.nih.gov/ncitbrowser/ConceptReport.jsp?dictionary=NCI_Thesaurus&ns=ncit&code=C71620"},"valueList":["10^9/L","10^6/L"],"role":"Qualifier","relationship":{"subject":"LBORRESU","linkingPhrase":"is the unit for the value in","predicateTerm":"IS_UNIT_FOR","object":"LBORRES"},"mandatoryVariable":true,"mandatoryValue":false,"vlmTarget":true},{"name":"LBSTRESC","dateElementConceptId":"C36292","isNonStandard":false,"role":"Qualifier","dataType":"float","length":12,"format":"12.4","significantDigits":4,"relationship":{"subject":"LBSTRESC","linkingPhrase":"is the result of the test in","predicateTerm":"IS_RESULT_OF","object":"LBTESTCD"},"mandatoryVariable":true,"mandatoryValue":false,"originType":"Collected","originSource":"Vendor","vlmTarget":true},{"name":"LBSTRESN","dateElementConceptId":"C36292","isNonStandard":false,"role":"Qualifier","dataType":"float","length":12,"format":"12.4","significantDigits":4,"relationship":{"subject":"LBSTRESN","linkingPhrase":"is the result of the test in","predicateTerm":"IS_RESULT_OF","object":"LBTESTCD"},"mandatoryVariable":true,"mandatoryValue":false,"originType":"Collected","originSource":"Vendor","vlmTarget":true},{"name":"LBSTRESU","dateElementConceptId":"C67391","isNonStandard":false,"codelist":{"conceptId":"C71620","submissionValue":"UNIT","href":"https://ncithesaurus.nci.nih.gov/ncitbrowser/ConceptReport.jsp?dictionary=NCI_Thesaurus&ns=ncit&code=C71620"},"assignedTerm":{"conceptId":"C67452","value":"10^6/L"},"role":"Qualifier","relationship":{"subject":"LBSTRESU","linkingPhrase":"is the unit for the value in","predicateTerm":"IS_UNIT_FOR","object":"LBSTRESN"},"mandatoryVariable":true,"mandatoryValue":false,"vlmTarget":true},{"name":"LBLOINC","isNonStandard":false,"role":"Qualifier","relationship":{"subject":"LBLOINC","linkingPhrase":"identifies an observation described by","predicateTerm":"IDENTIFIES_OBSERVATION","object":"LBTESTCD"},"mandatoryVariable":false,"mandatoryValue":false},{"name":"LBSPEC","dateElementConceptId":"C70713","isNonStandard":false,"codelist":{"conceptId":"C78734","submissionValue":"SPECTYPE","href":"https://ncithesaurus.nci.nih.gov/ncitbrowser/ConceptReport.jsp?dictionary=NCI_Thesaurus&ns=ncit&code=C78734"},"assignedTerm":{"conceptId":"C12434","value":"BLOOD"},"role":"Qualifier","relationship":{"subject":"LBSPEC","linkingPhrase":"is the specimen tested in","predicateTerm":"IS_SPECIMEN_TESTED_IN","object":"LBTESTCD"},"mandatoryVariable":true,"mandatoryValue":false,"comparator":"EQ"},{"name":"LBFAST","dateElementConceptId":"C83309","isNonStandard":false,"codelist":{"conceptId":"C66742","submissionValue":"NY","href":"https://ncithesaurus.nci.nih.gov/ncitbrowser/ConceptReport.jsp?dictionary=NCI_Thesaurus&ns=ncit&code=C66742"},"subsetCodelist":"NY_NY","valueList":["N","Y"],"role":"Qualifier","relationship":{"subject":"LBFAST","linkingPhrase":"is the subject's fasting status during the performance of the test in","predicateTerm":"IS_SUBJECT_STATE_FOR","object":"LBTESTCD"},"mandatoryVariable":false,"mandatoryValue":false}]}