{"_links":{"parentBiomedicalConcept":{"href":"/mdr/bc/packages/2023-03-31/biomedicalconcepts/C181655","title":"Electrocardiogram Analysis","type":"Biomedical Concept"},"parentPackage":{"href":"/mdr/specializations/sdtm/packages/2023-07-06/datasetspecializations","title":"SDTM Dataset Specialization Package Effective 2023-07-06","type":"SDTM Dataset Specialization Package"},"self":{"href":"/mdr/specializations/sdtm/packages/2023-07-06/datasetspecializations/EGINTP","title":"ECG Interpretation","type":"SDTM Dataset Specialization"}},"datasetSpecializationId":"EGINTP","domain":"EG","shortName":"ECG Interpretation","source":"EG.EGTESTCD","sdtmigStartVersion":"3-2","sdtmigEndVersion":"3-3","variables":[{"name":"EGTESTCD","isNonStandard":false,"codelist":{"conceptId":"C71153","submissionValue":"EGTESTCD","href":"https://ncithesaurus.nci.nih.gov/ncitbrowser/ConceptReport.jsp?dictionary=NCI_Thesaurus&ns=ncit&code=C71153"},"assignedTerm":{"conceptId":"C41255","value":"INTP"},"role":"Topic","relationship":{"subject":"EGTESTCD","linkingPhrase":"is the code for the value in","predicateTerm":"IS_DECODED_BY","object":"EGTEST"},"mandatoryVariable":true,"mandatoryValue":false,"comparator":"EQ"},{"name":"EGTEST","isNonStandard":false,"codelist":{"conceptId":"C71152","submissionValue":"EGTEST","href":"https://ncithesaurus.nci.nih.gov/ncitbrowser/ConceptReport.jsp?dictionary=NCI_Thesaurus&ns=ncit&code=C71152"},"assignedTerm":{"conceptId":"C41255","value":"Interpretation"},"role":"Qualifier","relationship":{"subject":"EGTEST","linkingPhrase":"decodes the value in","predicateTerm":"DECODES","object":"EGTESTCD"},"mandatoryVariable":true,"mandatoryValue":false},{"name":"EGORRES","dateElementConceptId":"C125009","isNonStandard":false,"codelist":{"conceptId":"C101834","submissionValue":"NORMABNM","href":"https://ncithesaurus.nci.nih.gov/ncitbrowser/ConceptReport.jsp?dictionary=NCI_Thesaurus&ns=ncit&code=C101834"},"role":"Qualifier","dataType":"text","length":20,"relationship":{"subject":"EGORRES","linkingPhrase":"is the result of the test in","predicateTerm":"IS_RESULT_OF","object":"EGTESTCD"},"mandatoryVariable":true,"mandatoryValue":false,"originType":"Collected","vlmTarget":true},{"name":"EGSTRESC","dateElementConceptId":"C125009","isNonStandard":false,"codelist":{"conceptId":"C101834","submissionValue":"NORMABNM","href":"https://ncithesaurus.nci.nih.gov/ncitbrowser/ConceptReport.jsp?dictionary=NCI_Thesaurus&ns=ncit&code=C101834"},"role":"Qualifier","dataType":"text","length":20,"relationship":{"subject":"EGSTRESC","linkingPhrase":"is the result of the test in","predicateTerm":"IS_RESULT_OF","object":"EGTESTCD"},"mandatoryVariable":true,"mandatoryValue":false,"vlmTarget":true},{"name":"EGCAT","dateElementConceptId":"C83254","isNonStandard":false,"assignedTerm":{"value":"INTERPRETATION"},"role":"Qualifier","relationship":{"subject":"EGCAT","linkingPhrase":"groups values in","predicateTerm":"GROUPS","object":"EGTESTCD"},"mandatoryVariable":true,"mandatoryValue":false,"comparator":"EQ"},{"name":"EGMETHOD","dateElementConceptId":"C83089","isNonStandard":false,"codelist":{"conceptId":"C71151","submissionValue":"EGMETHOD","href":"https://ncithesaurus.nci.nih.gov/ncitbrowser/ConceptReport.jsp?dictionary=NCI_Thesaurus&ns=ncit&code=C71151"},"role":"Qualifier","relationship":{"subject":"EGMETHOD","linkingPhrase":"is the method for the test in","predicateTerm":"SPECIFIES","object":"EGTESTCD"},"mandatoryVariable":true,"mandatoryValue":false},{"name":"EGEVAL","dateElementConceptId":"C83259","isNonStandard":false,"codelist":{"conceptId":"C78735","submissionValue":"EVAL","href":"https://ncithesaurus.nci.nih.gov/ncitbrowser/ConceptReport.jsp?dictionary=NCI_Thesaurus&ns=ncit&code=C78735"},"subsetCodelist":"EVAL_EG","valueList":["ADJUDICATION COMMITTEE","INDEPENDENT ASSESSOR","INVESTIGATOR","VENDOR"],"role":"Qualifer","relationship":{"subject":"EGEVAL","linkingPhrase":"is the role of the assessor who performed the test in","predicateTerm":"PERFORMS","object":"EGTESTCD"},"mandatoryVariable":false,"mandatoryValue":false,"comparator":"IN"},{"name":"EGCLSIG","dateElementConceptId":"C83019","isNonStandard":true,"codelist":{"conceptId":"C66742","submissionValue":"NY","href":"https://ncithesaurus.nci.nih.gov/ncitbrowser/ConceptReport.jsp?dictionary=NCI_Thesaurus&ns=ncit&code=C66742"},"subsetCodelist":"NY_NY","valueList":["N","Y"],"role":"Qualifier","relationship":{"subject":"EGCLSIG","linkingPhrase":"is the clinical significance interpretation for","predicateTerm":"IS_ATTRIBUTE_FOR","object":"EGORRES"},"mandatoryVariable":false,"mandatoryValue":false}]}