{"_links":{"parentBiomedicalConcept":{"href":"/mdr/bc/packages/2022-10-26/biomedicalconcepts/C49677","title":"Heart Rate","type":"Biomedical Concept"},"parentPackage":{"href":"/mdr/specializations/sdtm/packages/2022-10-26/datasetspecializations","title":"SDTM Dataset Specialization Package Effective 2022-10-26","type":"SDTM Dataset Specialization Package"},"self":{"href":"/mdr/specializations/sdtm/packages/2022-10-26/datasetspecializations/HR","title":"Heart Rate","type":"SDTM Dataset Specialization"}},"datasetSpecializationId":"HR","domain":"VS","shortName":"Heart Rate","source":"VS.VSTESTCD","sdtmigStartVersion":"3-2","sdtmigEndVersion":"","variables":[{"name":"VSTESTCD","isNonStandard":false,"codelist":{"conceptId":"C65047","submissionValue":"VSTESTCD","href":"https://ncithesaurus.nci.nih.gov/ncitbrowser/ConceptReport.jsp?dictionary=NCI_Thesaurus&ns=ncit&code=C65047"},"assignedTerm":{"conceptId":"C49677","value":"HR"},"role":"Topic","relationship":{"subject":"VSTESTCD","linkingPhrase":"is decoded by the value in","predicateTerm":"IS_DECODED_BY","object":"VSTEST"},"mandatoryVariable":true,"mandatoryValue":false,"comparator":"EQ"},{"name":"VSTEST","isNonStandard":false,"codelist":{"conceptId":"C67154","submissionValue":"VSTEST","href":"https://ncithesaurus.nci.nih.gov/ncitbrowser/ConceptReport.jsp?dictionary=NCI_Thesaurus&ns=ncit&code=C67154"},"assignedTerm":{"conceptId":"C49677","value":"Heart Rate"},"role":"Qualifier","relationship":{"subject":"VSTEST","linkingPhrase":"decodes the value in","predicateTerm":"DECODES","object":"VSTESTCD"},"mandatoryVariable":true,"mandatoryValue":false},{"name":"VSORRES","dateElementConceptId":"C173522","isNonStandard":false,"role":"Qualifier","dataType":"integer","length":3,"relationship":{"subject":"VSORRES","linkingPhrase":"is the result of the test in","predicateTerm":"IS_RESULT_OF","object":"VSTESTCD"},"mandatoryVariable":true,"mandatoryValue":false,"originType":"Collected","originSource":"Investigator","vlmTarget":true},{"name":"VSORRESU","dateElementConceptId":"C73688","isNonStandard":false,"codelist":{"conceptId":"C66770","submissionValue":"VSRESU","href":"https://ncithesaurus.nci.nih.gov/ncitbrowser/ConceptReport.jsp?dictionary=NCI_Thesaurus&ns=ncit&code=C66770"},"assignedTerm":{"conceptId":"C49673","value":"beats/min"},"role":"Qualifier","relationship":{"subject":"VSORRESU","linkingPhrase":"is the unit for the value in","predicateTerm":"IS_UNIT_FOR","object":"VSORRES"},"mandatoryVariable":true,"mandatoryValue":false,"vlmTarget":true},{"name":"VSSTRESC","dateElementConceptId":"C173522","isNonStandard":false,"role":"Qualifier","dataType":"integer","length":3,"relationship":{"subject":"VSSTRESC","linkingPhrase":"is the result of the test in","predicateTerm":"IS_RESULT_OF","object":"VSTESTCD"},"mandatoryVariable":false,"mandatoryValue":false,"vlmTarget":true},{"name":"VSSTRESN","dateElementConceptId":"C173522","isNonStandard":false,"role":"Qualifier","dataType":"integer","length":3,"relationship":{"subject":"VSSTRESN","linkingPhrase":"is the result of the test in","predicateTerm":"IS_RESULT_OF","object":"VSTESTCD"},"mandatoryVariable":false,"mandatoryValue":false,"vlmTarget":true},{"name":"VSSTRESU","dateElementConceptId":"C73688","isNonStandard":false,"codelist":{"conceptId":"C66770","submissionValue":"VSRESU","href":"https://ncithesaurus.nci.nih.gov/ncitbrowser/ConceptReport.jsp?dictionary=NCI_Thesaurus&ns=ncit&code=C66770"},"assignedTerm":{"conceptId":"C49673","value":"beats/min"},"role":"Qualifier","relationship":{"subject":"VSSTRESU","linkingPhrase":"is the unit for the value in","predicateTerm":"IS_UNIT_FOR","object":"VSSTRESN"},"mandatoryVariable":false,"mandatoryValue":false,"vlmTarget":true},{"name":"VSPOS","dateElementConceptId":"C83114","isNonStandard":false,"codelist":{"conceptId":"C71148","submissionValue":"POSITION","href":"https://ncithesaurus.nci.nih.gov/ncitbrowser/ConceptReport.jsp?dictionary=NCI_Thesaurus&ns=ncit&code=C71148"},"subsetCodelist":"VSPOS","valueList":["SITTING","STANDING","SUPINE"],"role":"Qualifier","relationship":{"subject":"VSPOS","linkingPhrase":"is the subject position during performance of the test in","predicateTerm":"IS_SUBJECT_STATE_FOR","object":"VSTESTCD"},"mandatoryVariable":false,"mandatoryValue":false,"comparator":"IN"},{"name":"VSLOC","dateElementConceptId":"C83088","isNonStandard":false,"codelist":{"conceptId":"C74456","submissionValue":"LOC","href":"https://ncithesaurus.nci.nih.gov/ncitbrowser/ConceptReport.jsp?dictionary=NCI_Thesaurus&ns=ncit&code=C74456"},"subsetCodelist":"VSLOC_PULSE","valueList":["BRACHIAL ARTERY","COROTID ARTERY","DORSALIS PEDIS ARTERY","FEMORAL ARTERY","RADIAL ARTER"],"role":"Qualifier","relationship":{"subject":"VSLOC","linkingPhrase":"specifies the anatomical location of the performance of the test in","predicateTerm":"SPECIFIES","object":"VSTESTCD"},"mandatoryVariable":false,"mandatoryValue":false,"comparator":"IN"},{"name":"VSLAT","dateElementConceptId":"C123975","isNonStandard":false,"codelist":{"conceptId":"C99073","submissionValue":"LAT","href":"https://ncithesaurus.nci.nih.gov/ncitbrowser/ConceptReport.jsp?dictionary=NCI_Thesaurus&ns=ncit&code=C99073"},"subsetCodelist":"VSLAT_BP","valueList":["LEFT","RIGHT"],"role":"Qualifier","relationship":{"subject":"VSLAT","linkingPhrase":"further specifies the anatomical location in","predicateTerm":"SPECIFIES","object":"VSLOC"},"mandatoryVariable":false,"mandatoryValue":false,"comparator":"IN"}]}