{"_links":{"parentBiomedicalConcept":{"href":"/mdr/bc/packages/2023-07-06/biomedicalconcepts/C200145","title":"Solicited Medical History","type":"Biomedical Concept"},"parentPackage":{"href":"/mdr/specializations/sdtm/packages/2023-07-06/datasetspecializations","title":"SDTM Dataset Specialization Package Effective 2023-07-06","type":"SDTM Dataset Specialization Package"},"self":{"href":"/mdr/specializations/sdtm/packages/2023-07-06/datasetspecializations/MEDHISTPRESP","title":"Medical History Prespecified","type":"SDTM Dataset Specialization"}},"datasetSpecializationId":"MEDHISTPRESP","domain":"MH","shortName":"Medical History Prespecified","source":"MH.MHTERM","sdtmigStartVersion":"3-2","sdtmigEndVersion":"","variables":[{"name":"MHTERM","dateElementConceptId":"C83118","isNonStandard":false,"role":"Topic","dataType":"text","length":200,"relationship":{"subject":"MHTERM","linkingPhrase":"is original text for","predicateTerm":"IS_ORIGINAL_TEXT_FOR","object":"MHDECOD"},"mandatoryVariable":true,"mandatoryValue":true,"originType":"Assigned","originSource":"Sponsor"},{"name":"MHDECOD","dateElementConceptId":"C83346","isNonStandard":false,"role":"Qualifier","dataType":"text","length":200,"relationship":{"subject":"MHDECOD","linkingPhrase":"is a dictionary-derived term for the value in","predicateTerm":"IS_DERIVED_FROM","object":"MHTERM"},"mandatoryVariable":true,"mandatoryValue":false,"originType":"Assigned","originSource":"Sponsor"},{"name":"MHPRESP","dateElementConceptId":"C87897","isNonStandard":false,"codelist":{"conceptId":"C66742","submissionValue":"NY","href":"https://ncithesaurus.nci.nih.gov/ncitbrowser/ConceptReport.jsp?dictionary=NCI_Thesaurus&ns=ncit&code=C66742"},"subsetCodelist":"NY_Y","valueList":["Y"],"role":"Qualifier","dataType":"text","length":1,"relationship":{"subject":"MHPRESP","linkingPhrase":"indicates pre-specification of the value in","predicateTerm":"IS_INDICATOR_FOR","object":"MHTERM"},"mandatoryVariable":true,"mandatoryValue":true,"originType":"Assigned","originSource":"Sponsor"},{"name":"MHOCCUR","dateElementConceptId":"C83067","isNonStandard":false,"codelist":{"conceptId":"C66742","submissionValue":"NY","href":"https://ncithesaurus.nci.nih.gov/ncitbrowser/ConceptReport.jsp?dictionary=NCI_Thesaurus&ns=ncit&code=C66742"},"subsetCodelist":"NY_NY","valueList":["N","Y"],"role":"Qualifier","dataType":"text","length":1,"relationship":{"subject":"MHOCCUR","linkingPhrase":"indicates occurrence of the value in","predicateTerm":"IS_INDICATOR_FOR","object":"MHTERM"},"mandatoryVariable":true,"mandatoryValue":false,"originType":"Collected","originSource":"Investigator"},{"name":"MHCAT","dateElementConceptId":"C83018","isNonStandard":false,"role":"Qualifier","dataType":"text","length":200,"relationship":{"subject":"MHCAT","linkingPhrase":"groups values in","predicateTerm":"GROUPS","object":"MHTERM"},"mandatoryVariable":false,"mandatoryValue":false,"originType":"Assigned","originSource":"Sponsor"},{"name":"MHSCAT","dateElementConceptId":"C83143","isNonStandard":false,"role":"Qualifier","dataType":"text","length":200,"relationship":{"subject":"MHSCAT","linkingPhrase":"groups values in","predicateTerm":"GROUPS","object":"MHCAT"},"mandatoryVariable":false,"mandatoryValue":false,"originType":"Assigned","originSource":"Sponsor"}]}