{"_links":{"parentBiomedicalConcept":{"href":"/mdr/bc/packages/2023-07-06/biomedicalconcepts/C171531","title":"SARS-CoV-2 RNA Measurement","type":"Biomedical Concept"},"parentPackage":{"href":"/mdr/specializations/sdtm/packages/2023-07-06/datasetspecializations","title":"SDTM Dataset Specialization Package Effective 2023-07-06","type":"SDTM Dataset Specialization Package"},"self":{"href":"/mdr/specializations/sdtm/packages/2023-07-06/datasetspecializations/SAR2RNAVIRAL","title":"SARS-CoV-2 RNA Viral Load","type":"SDTM Dataset Specialization"}},"datasetSpecializationId":"SAR2RNAVIRAL","domain":"MB","shortName":"SARS-CoV-2 RNA Viral Load","source":"MB-MBTESTCD","sdtmigStartVersion":"3-3","sdtmigEndVersion":"","variables":[{"name":"MBTESTCD","isNonStandard":false,"codelist":{"conceptId":"C120527","submissionValue":"MBTESTCD","href":"https://ncithesaurus.nci.nih.gov/ncitbrowser/ConceptReport.jsp?dictionary=NCI_Thesaurus&ns=ncit&code=C120527"},"assignedTerm":{"conceptId":"C171531","value":"SAR2RNA"},"role":"Topic","relationship":{"subject":"MBTESTCD","linkingPhrase":"is the code for the value in","predicateTerm":"IS_DECODED_BY","object":"MBTEST"},"mandatoryVariable":true,"mandatoryValue":false,"comparator":"EQ"},{"name":"MBTEST","isNonStandard":false,"codelist":{"conceptId":"C120528","submissionValue":"MBTEST","href":"https://ncithesaurus.nci.nih.gov/ncitbrowser/ConceptReport.jsp?dictionary=NCI_Thesaurus&ns=ncit&code=C120528"},"assignedTerm":{"conceptId":"C171531","value":"SARS-CoV-2 RNA"},"role":"Qualifier","relationship":{"subject":"MBTEST","linkingPhrase":"decodes the value in","predicateTerm":"DECODES","object":"MBTESTCD"},"mandatoryVariable":true,"mandatoryValue":false},{"name":"MBTSTDTL","dateElementConceptId":"C117062","isNonStandard":false,"codelist":{"conceptId":"C174225","submissionValue":"MBFTSDTL","href":"https://ncithesaurus.nci.nih.gov/ncitbrowser/ConceptReport.jsp?dictionary=NCI_Thesaurus&ns=ncit&code=C174225"},"assignedTerm":{"conceptId":"C174331","value":"VIRAL LOAD"},"role":"Qualifier","relationship":{"subject":"MBTSTDTL","linkingPhrase":"further describes the test in","predicateTerm":"SPECIFIES","object":"MBTESTCD"},"mandatoryVariable":false,"mandatoryValue":false,"comparator":"EQ"},{"name":"MBORRES","dateElementConceptId":"C36292","isNonStandard":false,"role":"Qualifier","dataType":"text","length":20,"relationship":{"subject":"MBORRES","linkingPhrase":"is the result of the test in","predicateTerm":"IS_RESULT_OF","object":"MBTESTCD"},"mandatoryVariable":true,"mandatoryValue":false,"vlmTarget":true},{"name":"MBORRESU","dateElementConceptId":"C67391","isNonStandard":false,"codelist":{"conceptId":"C71620","submissionValue":"UNIT","href":"https://ncithesaurus.nci.nih.gov/ncitbrowser/ConceptReport.jsp?dictionary=NCI_Thesaurus&ns=ncit&code=C71620"},"valueList":["log10 copies/mL","RNA copies/mL"],"role":"Qualifier","relationship":{"subject":"MBORRESU","linkingPhrase":"is the unit for the value in","predicateTerm":"IS_UNIT_FOR","object":"MBORRES"},"mandatoryVariable":true,"mandatoryValue":false,"vlmTarget":true},{"name":"MBSTRESC","dateElementConceptId":"C36292","isNonStandard":false,"role":"Qualifier","dataType":"text","length":20,"relationship":{"subject":"MBSTRESC","linkingPhrase":"is the result of the test in","predicateTerm":"IS_RESULT_OF","object":"MBTESTCD"},"mandatoryVariable":true,"mandatoryValue":false,"vlmTarget":true},{"name":"MBSTRESN","dateElementConceptId":"C36292","isNonStandard":false,"role":"Qualifier","dataType":"float","length":12,"format":"12.4","significantDigits":4,"relationship":{"subject":"MBSTRESN","linkingPhrase":"is the result of the test in","predicateTerm":"IS_RESULT_OF","object":"MBTESTCD"},"mandatoryVariable":true,"mandatoryValue":false,"vlmTarget":true},{"name":"MBSTRESU","dateElementConceptId":"C67391","isNonStandard":false,"codelist":{"conceptId":"C71620","submissionValue":"UNIT","href":"https://ncithesaurus.nci.nih.gov/ncitbrowser/ConceptReport.jsp?dictionary=NCI_Thesaurus&ns=ncit&code=C71620"},"assignedTerm":{"conceptId":"C117972","value":"log10 copies/mL"},"role":"Qualifier","relationship":{"subject":"MBSTRESU","linkingPhrase":"is the unit for the value in","predicateTerm":"IS_UNIT_FOR","object":"MBSTRESN"},"mandatoryVariable":false,"mandatoryValue":false,"vlmTarget":true},{"name":"MBSPEC","dateElementConceptId":"C70713","isNonStandard":false,"codelist":{"conceptId":"C78734","submissionValue":"SPECTYPE","href":"https://ncithesaurus.nci.nih.gov/ncitbrowser/ConceptReport.jsp?dictionary=NCI_Thesaurus&ns=ncit&code=C78734"},"valueList":["ENDOTRACHEAL FLUID","LAVAGE FLUID","SALIVA","SERUM OR PLASMA","SERUM OR PLASMA OR BLOOD","SWABBED MATERIAL"],"role":"Qualifier","relationship":{"subject":"MBSPEC","linkingPhrase":"is the specimen tested in","predicateTerm":"IS_SPECIMEN_TESTED_IN","object":"MBTESTCD"},"mandatoryVariable":false,"mandatoryValue":false,"comparator":"IN"},{"name":"MBLOC","dateElementConceptId":"C171435","isNonStandard":false,"codelist":{"conceptId":"C74456","submissionValue":"LOC","href":"https://ncithesaurus.nci.nih.gov/ncitbrowser/ConceptReport.jsp?dictionary=NCI_Thesaurus&ns=ncit&code=C74456"},"valueList":["ALVEOLUS","NASOPHARYNX","OROPHARYNX","UPPER RESPIRATORY SYSTEM"],"role":"Qualifier","relationship":{"subject":"MBLOC","linkingPhrase":"is the subject position during performance of the test in","predicateTerm":"IS_SUBJECT_STATE_FOR","object":"MBTESTCD"},"mandatoryVariable":false,"mandatoryValue":false,"comparator":"IN"},{"name":"MBMETHOD","dateElementConceptId":"C83312","isNonStandard":false,"codelist":{"conceptId":"C85492","submissionValue":"METHOD","href":"https://ncithesaurus.nci.nih.gov/ncitbrowser/ConceptReport.jsp?dictionary=NCI_Thesaurus&ns=ncit&code=C85492"},"assignedTerm":{"conceptId":"C28408","value":"QUANTITATIVE REVERSE TRANSCRIPTASE POLYMERASE CHAIN REACTION"},"role":"Qualifier","relationship":{"subject":"MBMETHOD","linkingPhrase":"is the method for the test in","predicateTerm":"SPECIFIES","object":"MBTESTCD"},"mandatoryVariable":false,"mandatoryValue":false,"comparator":"EQ"}]}