{"_links":{"parentBiomedicalConcept":{"href":"/mdr/bc/packages/2022-10-26/biomedicalconcepts/C174446","title":"Body Temperature","type":"Biomedical Concept"},"parentPackage":{"href":"/mdr/specializations/sdtm/packages/2022-10-26/datasetspecializations","title":"SDTM Dataset Specialization Package Effective 2022-10-26","type":"SDTM Dataset Specialization Package"},"self":{"href":"/mdr/specializations/sdtm/packages/2022-10-26/datasetspecializations/TEMP","title":"Temperature","type":"SDTM Dataset Specialization"}},"datasetSpecializationId":"TEMP","domain":"VS","shortName":"Temperature","source":"VS.VSTESTCD","sdtmigStartVersion":"3-2","sdtmigEndVersion":"","variables":[{"name":"VSTESTCD","isNonStandard":false,"codelist":{"conceptId":"C65047","submissionValue":"VSTESTCD","href":"https://ncithesaurus.nci.nih.gov/ncitbrowser/ConceptReport.jsp?dictionary=NCI_Thesaurus&ns=ncit&code=C65047"},"assignedTerm":{"conceptId":"C174446","value":"TEMP"},"role":"Topic","relationship":{"subject":"VSTESTCD","linkingPhrase":"is decoded by the value in","predicateTerm":"IS_DECODED_BY","object":"VSTEST"},"mandatoryVariable":true,"mandatoryValue":false,"comparator":"EQ"},{"name":"VSTEST","isNonStandard":false,"codelist":{"conceptId":"C67154","submissionValue":"VSTEST","href":"https://ncithesaurus.nci.nih.gov/ncitbrowser/ConceptReport.jsp?dictionary=NCI_Thesaurus&ns=ncit&code=C67154"},"assignedTerm":{"conceptId":"C174446","value":"Body Temperature"},"role":"Qualifier","relationship":{"subject":"VSTEST","linkingPhrase":"decodes the value in","predicateTerm":"DECODES","object":"VSTESTCD"},"mandatoryVariable":true,"mandatoryValue":false},{"name":"VSORRES","dateElementConceptId":"C173522","isNonStandard":false,"role":"Qualifier","dataType":"float","length":8,"format":"8.3","significantDigits":3,"relationship":{"subject":"VSORRES","linkingPhrase":"is the result of the test in","predicateTerm":"IS_RESULT_OF","object":"VSTESTCD"},"mandatoryVariable":true,"mandatoryValue":false,"originType":"Collected","originSource":"Investigator","vlmTarget":true},{"name":"VSORRESU","dateElementConceptId":"C44276","isNonStandard":false,"codelist":{"conceptId":"C66770","submissionValue":"VSRESU","href":"https://ncithesaurus.nci.nih.gov/ncitbrowser/ConceptReport.jsp?dictionary=NCI_Thesaurus&ns=ncit&code=C66770"},"subsetCodelist":"VSRESU_TEMP","valueList":["C","F","K"],"role":"Qualifier","relationship":{"subject":"VSORRESU","linkingPhrase":"is the unit for the value in","predicateTerm":"IS_UNIT_FOR","object":"VSORRES"},"mandatoryVariable":true,"mandatoryValue":false,"vlmTarget":true},{"name":"VSSTRESC","dateElementConceptId":"C173522","isNonStandard":false,"role":"Qualifier","dataType":"float","length":8,"format":"8.3","significantDigits":3,"relationship":{"subject":"VSSTRESC","linkingPhrase":"is the result of the test in","predicateTerm":"IS_RESULT_OF","object":"VSTESTCD"},"mandatoryVariable":false,"mandatoryValue":false,"vlmTarget":true},{"name":"VSSTRESN","dateElementConceptId":"C173522","isNonStandard":false,"role":"Qualifier","dataType":"float","length":8,"format":"8.3","significantDigits":3,"relationship":{"subject":"VSSTRESN","linkingPhrase":"is the result of the test in","predicateTerm":"IS_RESULT_OF","object":"VSTESTCD"},"mandatoryVariable":false,"mandatoryValue":false,"vlmTarget":true},{"name":"VSSTRESU","dateElementConceptId":"C44276","isNonStandard":false,"codelist":{"conceptId":"C66770","submissionValue":"VSRESU","href":"https://ncithesaurus.nci.nih.gov/ncitbrowser/ConceptReport.jsp?dictionary=NCI_Thesaurus&ns=ncit&code=C66770"},"role":"Qualifier","relationship":{"subject":"VSSTRESU","linkingPhrase":"is the unit for the value in","predicateTerm":"IS_UNIT_FOR","object":"VSSTRESN"},"mandatoryVariable":false,"mandatoryValue":false,"vlmTarget":true},{"name":"VSLOC","dateElementConceptId":"C83088","isNonStandard":false,"codelist":{"conceptId":"C74456","submissionValue":"LOC","href":"https://ncithesaurus.nci.nih.gov/ncitbrowser/ConceptReport.jsp?dictionary=NCI_Thesaurus&ns=ncit&code=C74456"},"subsetCodelist":"VSLOC_TEMP","valueList":["AXILLA","EAR","FOREHEAD","ORAL CAVITY","RECTUM"],"role":"Qualifier","relationship":{"subject":"VSLOC","linkingPhrase":"specifies the anatomical location of the performance of the test in","predicateTerm":"SPECIFIES","object":"VSTESTCD"},"mandatoryVariable":false,"mandatoryValue":false,"comparator":"IN"}]}