{"_links":{"parentBiomedicalConcept":{"href":"/mdr/bc/packages/2023-07-06/biomedicalconcepts/C178053","title":"Target Indicator","type":"Biomedical Concept"},"parentPackage":{"href":"/mdr/specializations/sdtm/packages/2023-07-06/datasetspecializations","title":"SDTM Dataset Specialization Package Effective 2023-07-06","type":"SDTM Dataset Specialization Package"},"self":{"href":"/mdr/specializations/sdtm/packages/2023-07-06/datasetspecializations/TIND","title":"Target Indicator","type":"SDTM Dataset Specialization"}},"datasetSpecializationId":"TIND","domain":"TU","shortName":"Target Indicator","source":"TU.TUTESTCD","sdtmigStartVersion":"3-2","sdtmigEndVersion":"","variables":[{"name":"TUTESTCD","isNonStandard":false,"codelist":{"conceptId":"C96784","submissionValue":"TUTESTCD","href":"https://ncithesaurus.nci.nih.gov/ncitbrowser/ConceptReport.jsp?dictionary=NCI_Thesaurus&ns=ncit&code=C96784"},"assignedTerm":{"conceptId":"C178053","value":"TIND"},"role":"Topic","relationship":{"subject":"TUTESTCD","linkingPhrase":"is the code for the value in","predicateTerm":"IS_DECODED_BY","object":"TUTEST"},"mandatoryVariable":true,"mandatoryValue":false,"originType":"Assigned","originSource":"Sponsor","comparator":"EQ"},{"name":"TUTEST","isNonStandard":false,"codelist":{"conceptId":"C96783","submissionValue":"TUTEST","href":"https://ncithesaurus.nci.nih.gov/ncitbrowser/ConceptReport.jsp?dictionary=NCI_Thesaurus&ns=ncit&code=C96783"},"assignedTerm":{"conceptId":"C178053","value":"Target Indicator"},"role":"Qualifier","relationship":{"subject":"TUTEST","linkingPhrase":"decodes the value in","predicateTerm":"DECODES","object":"TUTESTCD"},"mandatoryVariable":true,"mandatoryValue":false,"originType":"Assigned","originSource":"Sponsor"},{"name":"TUORRES","dateElementConceptId":"C117221","isNonStandard":false,"codelist":{"conceptId":"C66742","submissionValue":"NY","href":"https://ncithesaurus.nci.nih.gov/ncitbrowser/ConceptReport.jsp?dictionary=NCI_Thesaurus&ns=ncit&code=C66742"},"valueList":["Y","N","U"],"role":"Qualifier","dataType":"text","length":24,"relationship":{"subject":"TUORRES","linkingPhrase":"is the result of the test in","predicateTerm":"IS_RESULT_OF","object":"TUTESTCD"},"mandatoryVariable":true,"mandatoryValue":false,"originType":"Collected","originSource":"Investigator","vlmTarget":true},{"name":"TUSTRESC","dateElementConceptId":"C117222","isNonStandard":false,"codelist":{"conceptId":"C66742","submissionValue":"NY","href":"https://ncithesaurus.nci.nih.gov/ncitbrowser/ConceptReport.jsp?dictionary=NCI_Thesaurus&ns=ncit&code=C66742"},"valueList":["Y","N","U"],"role":"Qualifier","dataType":"text","length":24,"relationship":{"subject":"TUSTRESC","linkingPhrase":"is the result of the test in","predicateTerm":"IS_RESULT_OF","object":"TUTESTCD"},"mandatoryVariable":true,"mandatoryValue":false,"originType":"Derived","originSource":"Sponsor","vlmTarget":true},{"name":"TUEVAL","dateElementConceptId":"C51824","isNonStandard":false,"codelist":{"conceptId":"C78735","submissionValue":"EVAL","href":"https://ncithesaurus.nci.nih.gov/ncitbrowser/ConceptReport.jsp?dictionary=NCI_Thesaurus&ns=ncit&code=C78735"},"assignedTerm":{"conceptId":"C25936","value":"INVESTIGATOR"},"role":"Qualifier","relationship":{"subject":"TUEVAL","linkingPhrase":"is the role of the assessor who performed the test in","predicateTerm":"PERFORMED","object":"TUTESTCD"},"mandatoryVariable":false,"mandatoryValue":false,"originType":"Assigned","originSource":"Sponsor","comparator":"EQ"},{"name":"EPOCH","dateElementConceptId":"C71738","isNonStandard":false,"codelist":{"conceptId":"C99079","submissionValue":"EPOCH","href":"https://ncithesaurus.nci.nih.gov/ncitbrowser/ConceptReport.jsp?dictionary=NCI_Thesaurus&ns=ncit&code=C99079"},"assignedTerm":{"conceptId":"C48262","value":"SCREENING"},"role":"Timing","relationship":{"subject":"EPOCH","linkingPhrase":"is the epoch of the performance of the test in","predicateTerm":"IS_EPOCH_OF","object":"TUTESTCD"},"mandatoryVariable":true,"mandatoryValue":false,"originType":"Assigned","originSource":"Sponsor","comparator":"EQ"}]}