{"_links":{"parentBiomedicalConcept":{"href":"/mdr/bc/packages/2023-07-06/biomedicalconcepts/C94523","title":"Tumor Identification","type":"Biomedical Concept"},"parentPackage":{"href":"/mdr/specializations/sdtm/packages/2023-07-06/datasetspecializations","title":"SDTM Dataset Specialization Package Effective 2023-07-06","type":"SDTM Dataset Specialization Package"},"self":{"href":"/mdr/specializations/sdtm/packages/2023-07-06/datasetspecializations/TUMERGE","title":"Tumor Merged","type":"SDTM Dataset Specialization"}},"datasetSpecializationId":"TUMERGE","domain":"TU","shortName":"Tumor Merged","source":"TU.TUTESTCD","sdtmigStartVersion":"3-2","sdtmigEndVersion":"","variables":[{"name":"TUTESTCD","isNonStandard":false,"codelist":{"conceptId":"C96784","submissionValue":"TUTESTCD","href":"https://ncithesaurus.nci.nih.gov/ncitbrowser/ConceptReport.jsp?dictionary=NCI_Thesaurus&ns=ncit&code=C96784"},"assignedTerm":{"conceptId":"C94525","value":"TUMERGE"},"role":"Topic","relationship":{"subject":"TUTESTCD","linkingPhrase":"is the code for the value in","predicateTerm":"IS_DECODED_BY","object":"TUTEST"},"mandatoryVariable":true,"mandatoryValue":false,"originType":"Assigned","originSource":"Sponsor","comparator":"EQ"},{"name":"TUTEST","isNonStandard":false,"codelist":{"conceptId":"C96783","submissionValue":"TUTEST","href":"https://ncithesaurus.nci.nih.gov/ncitbrowser/ConceptReport.jsp?dictionary=NCI_Thesaurus&ns=ncit&code=C96783"},"assignedTerm":{"conceptId":"C94525","value":"Tumor Merged"},"role":"Qualifier","relationship":{"subject":"TUTEST","linkingPhrase":"decodes the value in","predicateTerm":"DECODES","object":"TUTESTCD"},"mandatoryVariable":true,"mandatoryValue":false,"originType":"Assigned","originSource":"Sponsor"},{"name":"TUORRES","dateElementConceptId":"C117221","isNonStandard":false,"codelist":{"conceptId":"C123650","submissionValue":"TUIDRS","href":"https://ncithesaurus.nci.nih.gov/ncitbrowser/ConceptReport.jsp?dictionary=NCI_Thesaurus&ns=ncit&code=C123650"},"assignedTerm":{"conceptId":"C94520","value":"TARGET"},"role":"Qualifier","dataType":"text","length":24,"relationship":{"subject":"TUORRES","linkingPhrase":"is the result of the test in","predicateTerm":"IS_RESULT_OF","object":"TUTESTCD"},"mandatoryVariable":true,"mandatoryValue":false,"originType":"Assigned","originSource":"Sponsor","vlmTarget":true},{"name":"TUSTRESC","dateElementConceptId":"C117222","isNonStandard":false,"codelist":{"conceptId":"C123650","submissionValue":"TUIDRS","href":"https://ncithesaurus.nci.nih.gov/ncitbrowser/ConceptReport.jsp?dictionary=NCI_Thesaurus&ns=ncit&code=C123650"},"assignedTerm":{"conceptId":"C94520","value":"TARGET"},"role":"Qualifier","dataType":"text","length":24,"relationship":{"subject":"TUSTRESC","linkingPhrase":"is the result of the test in","predicateTerm":"IS_RESULT_OF","object":"TUTESTCD"},"mandatoryVariable":true,"mandatoryValue":false,"originType":"Derived","originSource":"Sponsor","vlmTarget":true},{"name":"TULOC","dateElementConceptId":"C170500","isNonStandard":false,"codelist":{"conceptId":"C74456","submissionValue":"LOC","href":"https://ncithesaurus.nci.nih.gov/ncitbrowser/ConceptReport.jsp?dictionary=NCI_Thesaurus&ns=ncit&code=C74456"},"role":"Qualifier","relationship":{"subject":"TULOC","linkingPhrase":"specifies the anatomical location of the performance of the test in","predicateTerm":"SPECIFIES","object":"TUTESTCD"},"mandatoryVariable":true,"mandatoryValue":false,"originType":"Collected","originSource":"Investigator"},{"name":"TULAT","dateElementConceptId":"C25185","isNonStandard":false,"codelist":{"conceptId":"C99073","submissionValue":"LAT","href":"https://ncithesaurus.nci.nih.gov/ncitbrowser/ConceptReport.jsp?dictionary=NCI_Thesaurus&ns=ncit&code=C99073"},"role":"Qualifier","relationship":{"subject":"TULAT","linkingPhrase":"further specifies the anatomical location in","predicateTerm":"SPECIFIES","object":"TULOC"},"mandatoryVariable":false,"mandatoryValue":false,"originType":"Collected","originSource":"Investigator"},{"name":"TUDIR","dateElementConceptId":"C54215","isNonStandard":false,"codelist":{"conceptId":"C99074","submissionValue":"DIR","href":"https://ncithesaurus.nci.nih.gov/ncitbrowser/ConceptReport.jsp?dictionary=NCI_Thesaurus&ns=ncit&code=C99074"},"role":"Qualifier","relationship":{"subject":"TUDIR","linkingPhrase":"further specifies the anatomical location in","predicateTerm":"SPECIFIES","object":"TULOC"},"mandatoryVariable":false,"mandatoryValue":false,"originType":"Collected","originSource":"Investigator"},{"name":"TUMETHOD","dateElementConceptId":"C82535","isNonStandard":false,"codelist":{"conceptId":"C85492","submissionValue":"METHOD","href":"https://ncithesaurus.nci.nih.gov/ncitbrowser/ConceptReport.jsp?dictionary=NCI_Thesaurus&ns=ncit&code=C85492"},"valueList":["CT SCAN","CALIPER MEASUREMENT METHOD","ENDOSCOPY","LYMPHANGIOGRAPHY","MAMMOGRAPHY","MRI","NUCLEAR RADIOLOGY","PET SCAN","PET/CT SCAN","PET/MRI SCAN","PHOTOGRAPHY","SCINTIGRAPHY","TOTAL BODY RADIOGRAPHY","ULTRASOUND","X-RAY"],"role":"Qualifier","relationship":{"subject":"TUMETHOD","linkingPhrase":"is the method for the test in","predicateTerm":"SPECIFIES","object":"TUTESTCD"},"mandatoryVariable":true,"mandatoryValue":false,"originType":"Collected","originSource":"Investigator","comparator":"IN"},{"name":"TUEVAL","dateElementConceptId":"C51824","isNonStandard":false,"codelist":{"conceptId":"C78735","submissionValue":"EVAL","href":"https://ncithesaurus.nci.nih.gov/ncitbrowser/ConceptReport.jsp?dictionary=NCI_Thesaurus&ns=ncit&code=C78735"},"valueList":["INVESTIGATOR","ADJUDICATOR","INDEPENDENT ASSESSOR"],"role":"Qualifier","relationship":{"subject":"TUEVAL","linkingPhrase":"is the role of the assessor who performed the test in","predicateTerm":"PERFORMED","object":"TUTESTCD"},"mandatoryVariable":false,"mandatoryValue":false,"originType":"Assigned","originSource":"Sponsor","comparator":"IN"},{"name":"EPOCH","dateElementConceptId":"C71738","isNonStandard":false,"codelist":{"conceptId":"C99079","submissionValue":"EPOCH","href":"https://ncithesaurus.nci.nih.gov/ncitbrowser/ConceptReport.jsp?dictionary=NCI_Thesaurus&ns=ncit&code=C99079"},"assignedTerm":{"conceptId":"C101526","value":"TREATMENT"},"role":"Timing","relationship":{"subject":"EPOCH","linkingPhrase":"is the epoch of the performance of the test in","predicateTerm":"IS_EPOCH_OF","object":"TUTESTCD"},"mandatoryVariable":true,"mandatoryValue":false,"originType":"Assigned","originSource":"Sponsor","comparator":"EQ"},{"name":"TUREFID","dateElementConceptId":"C117442","isNonStandard":false,"role":"Identifier","relationship":{"subject":"TUREFID","linkingPhrase":"identifies the image from the procedure in","predicateTerm":"IDENTIFIES_PRODUCT_IN","object":"PRTRT"},"mandatoryVariable":true,"mandatoryValue":false,"originType":"Assigned","originSource":"Sponsor"},{"name":"TULNKID","dateElementConceptId":"C117436","isNonStandard":false,"role":"Identifier","relationship":{"subject":"TULNKID","linkingPhrase":"identifies the tumor found by the test in","predicateTerm":"IDENTIFIES_TUMOR_IN","object":"TUTESTCD"},"mandatoryVariable":true,"mandatoryValue":false,"originType":"Assigned","originSource":"Sponsor"}]}